subject,session,block,trial,set_size,response_size_list,response_size_new_words,tested,response,response_category,rt
10,1,1,1,4,0,0,2,430,1,-1
10,1,1,2,4,2,0,1,925,1,1.586
10,1,1,3,2,1,1,1,533,1,1.399
10,1,1,4,8,0,0,8,45,3,-1
10,1,1,5,6,4,0,1,477,1,2.301
10,1,1,6,2,2,2,1,1105,1,2.424
10,1,1,7,8,6,4,1,828,1,3.286
10,1,1,8,6,6,0,6,193,1,3.213
10,1,1,9,2,0,0,2,310,1,-1
10,1,1,10,6,1,1,1,324,1,2.183
10,1,1,11,4,1,1,2,985,1,1.897
10,1,1,12,8,8,4,5,1076,1,4.244
10,1,1,13,8,2,2,1,833,1,1.995
10,1,1,14,8,4,4,4,317,2,6.445
10,1,1,15,8,1,1,3,965,1,2.186
10,1,1,16,8,2,0,8,634,1,4.348
10,1,1,17,6,6,4,1,91,1,6.935
10,1,1,18,8,8,0,4,286,2,8.323
10,1,1,19,4,4,0,1,605,1,1.54
10,1,1,20,2,2,0,1,194,1,1.025
10,1,1,21,4,2,2,3,1182,1,1.497
10,1,1,22,6,2,0,5,156,1,1.919
10,1,1,23,6,0,0,2,539,1,-1
10,1,1,24,6,4,4,6,209,1,2.488
10,1,1,25,4,4,4,3,862,1,2.465
10,1,1,26,8,6,0,6,876,2,5.92
10,1,1,27,6,2,2,2,1068,2,3.658
10,1,1,28,8,4,0,8,931,1,2.172
10,1,2,1,8,4,4,7,1057,1,1.96
10,1,2,2,8,6,4,5,947,1,1.957
10,1,2,3,4,4,4,1,712,1,1.757
10,1,2,4,6,2,2,4,676,1,2.042
10,1,2,5,4,0,0,3,283,1,-1
10,1,2,6,8,8,0,5,149,1,1.704
10,1,2,7,8,0,0,5,1195,2,-1
10,1,2,8,6,4,4,4,683,1,5.029
10,1,2,9,8,1,1,7,340,1,2.251
10,1,2,10,6,0,0,3,122,1,-1
10,1,2,11,6,6,0,3,687,1,5.553
10,1,2,12,8,2,0,4,357,1,3.363
10,1,2,13,2,2,0,2,878,1,1.108
10,1,2,14,6,2,0,6,339,1,1.332
10,1,2,15,8,4,0,2,190,1,4.115
10,1,2,16,6,6,4,4,1004,1,1.684
10,1,2,17,2,2,2,2,598,1,1.173
10,1,2,18,4,4,0,2,753,1,2.093
10,1,2,19,2,0,0,1,970,1,-1
10,1,2,20,4,1,1,4,147,1,1.688
10,1,2,21,4,2,0,4,806,1,2.17
10,1,2,22,2,1,1,2,824,1,1.514
10,1,2,23,6,4,0,3,987,1,1.633
10,1,2,24,8,6,0,1,1048,1,2.833
10,1,2,25,8,8,4,7,583,1,2.661
10,1,2,26,4,2,2,2,865,1,1.281
10,1,2,27,6,1,1,6,81,1,1.064
10,1,2,28,8,2,2,5,892,1,3.132
10,1,3,1,4,1,1,1,296,1,2.014
10,1,3,2,8,1,1,4,773,1,3.16
10,1,3,3,2,1,1,1,254,1,1.738
10,1,3,4,6,1,1,2,119,1,1.861
10,1,3,5,4,4,4,4,602,1,3.325
10,1,3,6,8,6,4,7,262,1,6.406
10,1,3,7,4,4,0,4,293,1,4.208
10,1,3,8,8,4,0,7,656,1,2.084
10,1,3,9,2,0,0,2,898,1,-1
10,1,3,10,6,4,0,4,549,1,2.053
10,1,3,11,6,4,4,5,494,1,2.173
10,1,3,12,8,2,2,4,648,1,3.051
10,1,3,13,8,2,0,7,769,1,2.327
10,1,3,14,4,2,2,1,198,2,5.523
10,1,3,15,2,2,0,2,860,1,2.341
10,1,3,16,6,0,0,5,1117,3,-1
10,1,3,17,2,2,2,1,538,1,1.745
10,1,3,18,4,2,0,3,281,1,1.465
10,1,3,19,6,6,4,2,745,1,4.56
10,1,3,20,6,2,2,6,77,1,1.636
10,1,3,21,6,2,0,4,1064,1,1.596
10,1,3,22,8,8,4,2,1128,2,11.858
10,1,3,23,8,0,0,1,332,2,-1
10,1,3,24,6,6,0,5,696,1,2.303
10,1,3,25,8,4,4,3,371,2,9.203
10,1,3,26,4,0,0,4,11,1,-1
10,1,3,27,8,8,0,2,624,1,6.041
10,1,3,28,8,6,0,4,814,1,4.526
10,1,4,1,2,0,0,1,530,1,-1
10,1,4,2,8,0,0,2,1185,1,-1
10,1,4,3,4,4,4,2,321,1,2.88
10,1,4,4,4,4,0,3,1114,1,1.628
10,1,4,5,8,4,0,5,31,2,5.953
10,1,4,6,4,1,1,3,411,1,1.995
10,1,4,7,8,1,1,1,434,1,2.221
10,1,4,8,6,1,1,4,798,1,2.199
10,1,4,9,2,2,2,2,1027,1,1.51
10,1,4,10,8,8,4,1,691,1,5.033
10,1,4,11,4,2,0,2,213,1,1.924
10,1,4,12,4,2,2,4,354,1,1.807
10,1,4,13,8,6,4,3,456,1,4.285
10,1,4,14,4,0,0,1,322,1,-1
10,1,4,15,8,6,0,8,319,1,2.48
10,1,4,16,2,2,0,1,770,1,1.354
10,1,4,17,6,4,4,1,46,1,3.96
10,1,4,18,8,2,2,2,282,1,2.584
10,1,4,19,6,6,0,2,599,1,3.401
10,1,4,20,6,6,4,5,24,1,1.633
10,1,4,21,6,2,0,1,729,2,4.031
10,1,4,22,8,4,4,8,717,1,2.428
10,1,4,23,6,2,2,3,417,1,3.873
10,1,4,24,6,4,0,6,394,1,1.969
10,1,4,25,8,8,0,8,893,1,2.263
10,1,4,26,2,1,1,2,954,1,1.568
10,1,4,27,8,2,0,1,113,2,3.499
10,1,4,28,6,0,0,1,369,1,-1
10,1,5,1,4,4,0,4,1060,1,1.704
10,1,5,2,2,1,1,1,521,1,1.955
10,1,5,3,8,2,2,8,975,1,2.768
10,1,5,4,6,4,4,3,1166,1,3.772
10,1,5,5,8,2,0,2,958,1,2.736
10,1,5,6,6,0,0,4,1024,1,-1
10,1,5,7,8,4,0,6,950,1,2.026
10,1,5,8,2,2,2,1,581,1,1.886
10,1,5,9,8,6,0,5,800,1,8.105
10,1,5,10,4,4,4,3,946,1,1.811
10,1,5,11,8,0,0,6,763,1,-1
10,1,5,12,6,6,0,4,387,1,2.156
10,1,5,13,8,8,4,6,621,2,6.438
10,1,5,14,6,2,2,5,654,1,2.057
10,1,5,15,6,4,0,5,166,1,1.695
10,1,5,16,2,2,0,2,271,1,1.719
10,1,5,17,4,0,0,2,883,1,-1
10,1,5,18,8,6,4,4,638,1,5.132
10,1,5,19,8,4,4,1,546,1,3.11
10,1,5,20,4,2,0,4,1147,1,2.679
10,1,5,21,8,1,1,8,280,1,1.936
10,1,5,22,8,8,0,6,894,2,4.19
10,1,5,23,4,1,1,1,955,1,1.87
10,1,5,24,6,1,1,3,963,1,1.965
10,1,5,25,4,2,2,4,146,1,1.491
10,1,5,26,6,6,4,6,1066,1,1.401
10,1,5,27,6,2,0,2,307,1,2
10,1,5,28,2,0,0,1,392,1,-1
10,1,6,1,6,2,2,1,240,1,2.318
10,1,6,2,8,0,0,7,852,1,-1
10,1,6,3,2,2,2,2,924,1,1.731
10,1,6,4,4,1,1,3,28,1,1.968
10,1,6,5,8,4,4,5,1032,1,6.362
10,1,6,6,2,1,1,2,315,1,1.588
10,1,6,7,8,2,0,5,537,1,2.147
10,1,6,8,6,0,0,6,805,1,-1
10,1,6,9,8,4,0,3,111,1,6.788
10,1,6,10,8,8,4,4,654,1,5.778
10,1,6,11,4,4,0,3,399,1,1.374
10,1,6,12,2,2,0,1,65,1,1.573
10,1,6,13,4,2,2,3,606,1,3.294
10,1,6,14,6,1,1,5,186,1,1.426
10,1,6,15,6,4,0,2,269,2,7.57
10,1,6,16,6,6,4,3,116,1,3.462
10,1,6,17,4,4,4,4,12,1,2.039
10,1,6,18,6,2,0,3,604,1,3.13
10,1,6,19,8,6,4,8,664,1,3.221
10,1,6,20,8,6,0,7,387,1,1.867
10,1,6,21,8,1,1,5,5,1,1.98
10,1,6,22,8,2,2,7,1057,2,3.273
10,1,6,23,4,2,0,2,1079,1,1.666
10,1,6,24,6,4,4,2,423,1,3.621
10,1,6,25,8,8,0,3,323,1,4.945
10,1,6,26,6,6,0,1,348,1,3.148
10,1,6,27,2,0,0,2,948,1,-1
10,1,6,28,4,0,0,1,139,1,-1
10,1,7,1,8,4,0,4,1173,1,2.971
10,1,7,2,2,2,0,2,1058,1,1.81
10,1,7,3,6,1,1,4,995,1,2.635
10,1,7,4,8,1,1,2,1193,1,2.727
10,1,7,5,6,6,4,6,624,1,2.849
10,1,7,6,8,0,0,4,67,2,-1
10,1,7,7,4,2,2,1,534,1,2.283
10,1,7,8,4,4,4,1,830,1,2.11
10,1,7,9,8,2,0,6,184,1,3.835
10,1,7,10,6,0,0,2,453,1,-1
10,1,7,11,2,0,0,2,25,1,-1
10,1,7,12,8,4,4,6,974,1,2.202
10,1,7,13,2,2,2,1,996,1,1.853
10,1,7,14,8,8,4,3,456,1,5.632
10,1,7,15,6,2,2,3,1129,1,2.029
10,1,7,16,8,6,4,2,121,2,6.439
10,1,7,17,8,6,0,2,223,2,7.005
10,1,7,18,8,2,2,6,89,1,2.24
10,1,7,19,6,4,0,5,812,1,1.803
10,1,7,20,6,4,4,1,824,1,3.974
10,1,7,21,6,6,0,5,1008,1,1.903
10,1,7,22,6,2,0,1,700,1,2.822
10,1,7,23,8,8,0,7,383,1,3.43
10,1,7,24,2,1,1,1,1191,1,1.644
10,1,7,25,4,4,0,1,1146,1,2.115
10,1,7,26,4,1,1,2,158,1,1.887
10,1,7,27,4,0,0,3,333,1,-1
10,1,7,28,4,2,0,3,655,1,2.196
10,2,1,1,8,6,4,2,237,1,6.673
10,2,1,2,6,6,0,1,782,1,3.325
10,2,1,3,4,2,2,2,1055,1,1.423
10,2,1,4,6,4,4,3,1160,1,2.993
10,2,1,5,6,2,2,3,321,1,2.101
10,2,1,6,2,2,2,2,230,1,1.48
10,2,1,7,6,6,4,2,953,1,3.774
10,2,1,8,4,4,0,1,1150,1,2.115
10,2,1,9,8,0,0,2,953,3,-1
10,2,1,10,4,1,1,2,116,1,1.839
10,2,1,11,8,2,2,3,821,1,3.428
10,2,1,12,8,8,0,1,1191,1,4.266
10,2,1,13,8,8,4,4,14,1,4.82
10,2,1,14,8,1,1,7,285,1,1.928
10,2,1,15,8,4,0,5,412,1,3.881
10,2,1,16,6,2,0,1,1116,1,2.408
10,2,1,17,2,1,1,1,473,1,1.635
10,2,1,18,8,2,0,1,1144,1,2.628
10,2,1,19,6,1,1,3,687,1,1.785
10,2,1,20,4,4,4,3,231,1,2.142
10,2,1,21,6,0,0,3,1063,1,-1
10,2,1,22,2,0,0,2,62,1,-1
10,2,1,23,8,6,0,3,872,1,3.939
10,2,1,24,6,4,0,2,573,1,3.14
10,2,1,25,4,2,0,4,1125,1,2.178
10,2,1,26,2,2,0,1,405,1,1.965
10,2,1,27,8,4,4,8,1169,1,1.868
10,2,1,28,4,0,0,4,880,2,-1
10,2,2,1,6,6,4,4,981,1,1.722
10,2,2,2,6,4,4,1,173,1,3.68
10,2,2,3,4,2,2,4,770,1,1.462
10,2,2,4,8,4,4,2,117,1,6.395
10,2,2,5,6,2,0,4,1165,1,1.018
10,2,2,6,2,2,2,1,562,1,1.676
10,2,2,7,2,0,0,1,19,1,-1
10,2,2,8,8,2,2,4,576,1,4.537
10,2,2,9,6,1,1,6,1040,1,1.28
10,2,2,10,8,6,0,1,597,1,9.808
10,2,2,11,2,1,1,2,796,1,1.364
10,2,2,12,8,2,0,3,656,2,3.21
10,2,2,13,6,2,2,1,849,1,1.947
10,2,2,14,4,2,0,2,1117,1,1.457
10,2,2,15,4,0,0,2,377,1,-1
10,2,2,16,4,4,4,1,441,1,2.046
10,2,2,17,4,4,0,4,283,1,2.016
10,2,2,18,8,4,0,6,165,1,1.942
10,2,2,19,8,1,1,8,454,1,1.526
10,2,2,20,6,0,0,4,74,1,-1
10,2,2,21,2,2,0,2,1124,1,1.916
10,2,2,22,8,8,0,8,477,1,1.944
10,2,2,23,8,0,0,4,618,3,-1
10,2,2,24,4,1,1,3,312,1,2.121
10,2,2,25,6,4,0,3,471,1,2.369
10,2,2,26,8,6,4,7,472,1,2.97
10,2,2,27,8,8,4,6,893,1,8.827
10,2,2,28,6,6,0,6,797,1,2.541
10,2,3,1,8,6,0,6,268,1,1.836
10,2,3,2,4,4,4,4,714,1,1.965
10,2,3,3,8,4,4,6,967,1,3.05
10,2,3,4,8,2,2,8,415,1,1.903
10,2,3,5,6,2,2,2,120,1,7.221
10,2,3,6,6,6,0,5,1130,1,1.635
10,2,3,7,8,4,0,7,381,1,2.062
10,2,3,8,2,2,0,2,361,1,1.425
10,2,3,9,8,6,4,3,870,2,5.497
10,2,3,10,2,2,2,2,46,1,1.866
10,2,3,11,4,2,2,3,529,1,1.776
10,2,3,12,8,0,0,8,575,1,-1
10,2,3,13,4,1,1,4,795,1,2.104
10,2,3,14,6,2,0,6,1025,1,1.859
10,2,3,15,6,6,4,1,15,1,4.531
10,2,3,16,4,4,0,3,638,1,1.982
10,2,3,17,2,0,0,1,652,1,-1
10,2,3,18,6,1,1,4,1133,1,2.24
10,2,3,19,4,2,0,1,886,1,1.92
10,2,3,20,8,1,1,1,76,1,2.629
10,2,3,21,8,8,0,2,598,1,3.302
10,2,3,22,6,4,0,5,350,1,2.258
10,2,3,23,6,4,4,6,1168,1,2.778
10,2,3,24,4,0,0,3,692,1,-1
10,2,3,25,6,0,0,6,439,1,-1
10,2,3,26,8,2,0,6,10,1,3.236
10,2,3,27,2,1,1,2,771,1,1.858
10,2,3,28,8,8,4,2,300,1,4.715
10,2,4,1,8,0,0,6,892,1,-1
10,2,4,2,8,8,0,7,95,1,2.358
10,2,4,3,8,2,0,5,749,2,1.984
10,2,4,4,6,6,4,5,152,1,2.364
10,2,4,5,2,2,2,1,2,1,1.836
10,2,4,6,6,2,0,2,1081,1,3.693
10,2,4,7,4,1,1,1,650,1,1.755
10,2,4,8,6,0,0,1,252,1,-1
10,2,4,9,4,4,4,2,743,1,2.297
10,2,4,10,2,0,0,2,537,1,-1
10,2,4,11,6,1,1,5,105,1,2.798
10,2,4,12,8,4,0,1,98,1,3.038
10,2,4,13,2,2,0,1,42,1,1.857
10,2,4,14,8,1,1,5,958,1,2.376
10,2,4,15,6,2,2,6,176,1,1.833
10,2,4,16,4,4,0,2,452,1,7.3
10,2,4,17,4,2,2,1,309,1,1.842
10,2,4,18,4,0,0,1,197,1,-1
10,2,4,19,4,2,0,3,286,1,1.778
10,2,4,20,8,8,4,8,777,1,2.588
10,2,4,21,8,6,4,4,788,2,6.413
10,2,4,22,6,6,0,3,358,1,2.05
10,2,4,23,2,1,1,1,697,1,1.521
10,2,4,24,8,2,2,2,365,1,2.772
10,2,4,25,6,4,4,2,570,1,4.273
10,2,4,26,8,4,4,5,1118,2,9.557
10,2,4,27,8,6,0,2,907,2,6.203
10,2,4,28,6,4,0,4,7,1,2.257
10,2,5,1,4,2,0,4,980,1,2.813
10,2,5,2,4,4,0,1,827,1,1.331
10,2,5,3,6,0,0,5,135,1,-1
10,2,5,4,6,2,0,3,111,1,3.691
10,2,5,5,2,2,2,2,906,1,1.749
10,2,5,6,4,1,1,4,423,1,1.94
10,2,5,7,8,8,0,4,1032,2,11.56
10,2,5,8,8,6,4,1,1090,1,3.787
10,2,5,9,4,2,2,2,167,1,1.739
10,2,5,10,4,0,0,1,1008,1,-1
10,2,5,11,8,2,0,8,1016,1,1.751
10,2,5,12,8,4,4,1,270,1,3.572
10,2,5,13,8,4,0,8,195,1,1.682
10,2,5,14,2,0,0,2,217,1,-1
10,2,5,15,6,4,4,5,545,1,2.384
10,2,5,16,2,1,1,2,588,1,1.683
10,2,5,17,8,8,4,5,960,2,12.053
10,2,5,18,6,6,0,4,28,1,1.78
10,2,5,19,8,6,0,7,484,1,1.663
10,2,5,20,6,6,4,3,632,1,3.043
10,2,5,21,2,2,0,1,1006,1,1.621
10,2,5,22,4,4,4,1,876,1,2.832
10,2,5,23,6,2,2,4,443,2,4.433
10,2,5,24,8,0,0,1,721,1,-1
10,2,5,25,6,4,0,6,943,1,3.334
10,2,5,26,8,1,1,2,1095,1,2.094
10,2,5,27,8,2,2,6,85,2,5.207
10,2,5,28,6,1,1,2,376,1,2.479
10,2,6,1,8,0,0,5,637,1,-1
10,2,6,2,6,4,0,1,523,1,2.429
10,2,6,3,6,0,0,2,705,1,-1
10,2,6,4,8,6,0,5,71,1,2.189
10,2,6,5,2,0,0,1,119,1,-1
10,2,6,6,8,1,1,4,162,1,2.904
10,2,6,7,6,6,4,6,344,1,3.546
10,2,6,8,6,2,0,5,429,1,1.862
10,2,6,9,8,8,4,7,1052,1,1.725
10,2,6,10,4,4,0,3,684,1,2.053
10,2,6,11,2,1,1,1,954,1,1.765
10,2,6,12,8,6,4,8,385,1,2.444
10,2,6,13,6,1,1,1,1151,1,1.972
10,2,6,14,8,2,0,2,296,1,3.538
10,2,6,15,2,2,0,2,464,1,2.161
10,2,6,16,6,6,0,2,265,1,2.153
10,2,6,17,8,4,4,3,784,1,6.368
10,2,6,18,4,4,4,4,364,1,2.081
10,2,6,19,4,0,0,2,1114,1,-1
10,2,6,20,4,1,1,3,602,1,2.282
10,2,6,21,8,2,2,1,378,1,2.662
10,2,6,22,8,4,0,4,886,1,3.083
10,2,6,23,8,8,0,6,816,2,3.312
10,2,6,24,6,2,2,5,280,1,4.108
10,2,6,25,4,2,0,2,69,1,1.811
10,2,6,26,4,2,2,3,667,1,1.854
10,2,6,27,2,2,2,1,475,1,1.683
10,2,6,28,6,4,4,4,911,2,5.235
10,2,7,1,8,8,4,1,322,1,2.809
10,2,7,2,8,2,2,5,858,1,2.177
10,2,7,3,4,4,4,3,1069,1,2.752
10,2,7,4,4,1,1,2,902,1,2.112
10,2,7,5,2,0,0,2,238,1,-1
10,2,7,6,8,2,0,4,541,1,3.033
10,2,7,7,4,0,0,3,324,1,-1
10,2,7,8,6,2,0,3,310,1,6.649
10,2,7,9,6,6,4,4,584,1,2.134
10,2,7,10,2,2,0,2,171,1,2.285
10,2,7,11,6,4,4,6,255,1,1.912
10,2,7,12,6,1,1,3,165,1,1.902
10,2,7,13,6,6,0,3,444,1,4.057
10,2,7,14,8,4,4,7,347,1,2.479
10,2,7,15,8,4,0,2,406,1,7.072
10,2,7,16,2,2,2,2,758,1,1.704
10,2,7,17,8,6,4,5,600,2,8.459
10,2,7,18,4,4,0,4,814,1,1.908
10,2,7,19,8,8,0,5,857,1,2.678
10,2,7,20,6,4,0,4,240,1,1.989
10,2,7,21,8,0,0,7,658,1,-1
10,2,7,22,8,6,0,8,842,1,2.379
10,2,7,23,6,0,0,1,1164,1,-1
10,2,7,24,2,1,1,1,518,1,1.881
10,2,7,25,8,1,1,6,908,1,1.898
10,2,7,26,4,2,2,1,472,1,2.006
10,2,7,27,4,2,0,3,1002,1,1.823
10,2,7,28,6,2,2,6,109,1,1.956
10,2,8,1,6,4,4,3,158,1,7.591
10,2,8,2,4,2,2,4,1106,1,2.033
10,2,8,3,4,2,0,1,173,1,0.859
10,2,8,4,8,4,0,3,239,1,2.141
10,2,8,5,6,6,4,6,551,1,1.256
10,2,8,6,8,4,4,4,749,2,8.972
10,2,8,7,2,2,2,1,294,1,1.691
10,2,8,8,6,0,0,6,338,1,-1
10,2,8,9,2,0,0,1,413,1,-1
10,2,8,10,8,1,1,3,871,1,1.56
10,2,8,11,4,1,1,1,995,1,1.645
10,2,8,12,2,1,1,2,1015,1,1.115
10,2,8,13,8,6,0,4,288,1,9.88
10,2,8,14,4,4,0,2,996,1,2.128
10,2,8,15,8,2,0,7,537,2,3.97
10,2,8,16,4,0,0,4,748,1,-1
10,2,8,17,6,6,0,2,630,1,2.612
10,2,8,18,8,0,0,3,810,1,-1
10,2,8,19,8,8,0,3,862,1,5.49
10,2,8,20,6,4,0,5,478,1,2.014
10,2,8,21,8,6,4,6,1087,1,2.677
10,2,8,22,4,4,4,2,1144,1,3.448
10,2,8,23,6,1,1,4,83,1,1.887
10,2,8,24,6,2,2,3,12,1,2.637
10,2,8,25,6,2,0,4,482,1,2.099
10,2,8,26,8,2,2,7,1025,1,2.202
10,2,8,27,2,2,0,1,36,1,1.736
10,2,8,28,8,8,4,3,883,2,4.943
10,3,1,1,8,6,0,6,687,1,1.895
10,3,1,2,2,1,1,1,645,1,1.489
10,3,1,3,8,8,4,5,1163,1,14.601
10,3,1,4,4,2,2,4,525,1,1.817
10,3,1,5,8,8,0,3,1089,2,15.803
10,3,1,6,2,2,0,2,107,1,1.707
10,3,1,7,4,0,0,3,530,1,-1
10,3,1,8,8,2,2,3,754,1,2.519
10,3,1,9,4,1,1,1,824,1,1.558
10,3,1,10,6,2,0,1,105,1,1.469
10,3,1,11,4,2,0,2,293,1,1.482
10,3,1,12,6,1,1,6,848,1,1.486
10,3,1,13,4,4,0,1,1100,1,1.591
10,3,1,14,6,0,0,2,409,3,-1
10,3,1,15,6,4,4,6,220,1,1.247
10,3,1,16,6,4,0,4,957,1,1.588
10,3,1,17,8,0,0,4,152,2,-1
10,3,1,18,8,4,4,3,224,1,6.645
10,3,1,19,2,2,2,2,852,1,1.412
10,3,1,20,6,6,4,5,732,1,3.005
10,3,1,21,8,1,1,1,1191,1,1.658
10,3,1,22,2,0,0,1,853,1,-1
10,3,1,23,8,2,0,2,132,1,6.187
10,3,1,24,6,6,0,6,125,1,2.149
10,3,1,25,8,6,4,8,387,1,1.918
10,3,1,26,8,4,0,5,320,2,6.402
10,3,1,27,4,4,4,3,1025,2,3.241
10,3,1,28,6,2,2,4,480,1,1.52
10,3,2,1,2,2,0,1,1005,1,1.623
10,3,2,2,6,2,2,1,835,1,8.752
10,3,2,3,8,6,0,7,255,1,1.958
10,3,2,4,6,2,0,6,421,1,1.174
10,3,2,5,8,0,0,7,242,1,-1
10,3,2,6,4,2,0,4,177,1,1.722
10,3,2,7,2,0,0,2,740,1,-1
10,3,2,8,8,6,4,3,181,2,8.463
10,3,2,9,6,0,0,4,802,1,-1
10,3,2,10,8,1,1,4,662,1,2.257
10,3,2,11,4,1,1,3,137,1,1.632
10,3,2,12,6,4,0,3,1031,2,1.951
10,3,2,13,6,6,4,1,788,1,1.521
10,3,2,14,4,4,4,1,571,1,1.53
10,3,2,15,8,2,2,7,358,1,3.856
10,3,2,16,6,1,1,3,346,1,2.295
10,3,2,17,4,0,0,1,538,1,-1
10,3,2,18,8,2,0,1,402,1,2.744
10,3,2,19,8,8,0,7,897,1,1.819
10,3,2,20,4,4,0,2,86,1,2.201
10,3,2,21,6,6,0,4,830,1,1.383
10,3,2,22,2,2,2,1,384,1,1.598
10,3,2,23,8,8,4,2,843,1,6.135
10,3,2,24,8,4,0,3,908,1,6.709
10,3,2,25,6,4,4,5,455,1,1.334
10,3,2,26,4,2,2,3,419,1,1.317
10,3,2,27,8,4,4,5,40,1,2.062
10,3,2,28,2,1,1,2,998,1,1.183
10,3,3,1,6,2,0,2,403,1,2.261
10,3,3,2,6,2,2,5,1026,1,1.55
10,3,3,3,2,0,0,1,882,1,-1
10,3,3,4,8,4,0,8,444,1,1.945
10,3,3,5,8,2,0,5,1125,2,2.969
10,3,3,6,4,2,2,1,398,1,2.321
10,3,3,7,8,6,4,1,868,1,2.486
10,3,3,8,8,8,4,1,752,1,2.152
10,3,3,9,2,1,1,1,232,1,1.299
10,3,3,10,2,2,2,2,474,1,1.552
10,3,3,11,8,1,1,2,209,1,1.897
10,3,3,12,8,2,2,6,928,1,2.192
10,3,3,13,6,1,1,2,520,1,1.596
10,3,3,14,6,6,4,2,108,1,4.778
10,3,3,15,4,0,0,4,977,1,-1
10,3,3,16,2,2,0,2,1099,1,1.644
10,3,3,17,8,0,0,1,45,3,-1
10,3,3,18,4,4,0,3,1186,1,1.868
10,3,3,19,8,8,0,2,952,1,3.866
10,3,3,20,4,4,4,2,349,1,1.68
10,3,3,21,6,6,0,5,916,1,1.623
10,3,3,22,6,4,0,2,1016,2,2.738
10,3,3,23,8,4,4,1,605,1,3.046
10,3,3,24,4,2,0,1,1045,1,1.688
10,3,3,25,6,4,4,3,290,2,7.571
10,3,3,26,6,0,0,1,733,1,-1
10,3,3,27,8,6,0,8,1067,1,2.2
10,3,3,28,4,1,1,2,52,1,1.713
10,3,4,1,8,0,0,6,110,1,-1
10,3,4,2,6,2,0,4,447,1,1.88
10,3,4,3,2,0,0,2,895,1,-1
10,3,4,4,4,2,0,3,944,1,1.768
10,3,4,5,8,8,0,1,46,1,4.701
10,3,4,6,8,4,4,8,694,1,2.379
10,3,4,7,6,1,1,4,981,1,1.622
10,3,4,8,4,0,0,2,1097,1,-1
10,3,4,9,8,2,2,4,994,1,5.288
10,3,4,10,6,4,4,2,959,1,9.162
10,3,4,11,4,1,1,4,562,1,1.659
10,3,4,12,4,4,0,4,292,1,1.838
10,3,4,13,6,6,4,6,983,1,1.601
10,3,4,14,2,2,2,1,1118,1,1.375
10,3,4,15,8,2,0,6,410,1,1.883
10,3,4,16,2,2,0,1,711,1,1.502
10,3,4,17,6,4,0,5,1085,1,1.661
10,3,4,18,6,2,2,6,142,1,1.879
10,3,4,19,6,0,0,3,3,1,-1
10,3,4,20,8,1,1,5,975,1,2.262
10,3,4,21,2,1,1,2,1116,1,1.41
10,3,4,22,8,6,4,2,1101,2,10.633
10,3,4,23,6,6,0,1,1151,1,5.423
10,3,4,24,8,6,0,2,593,1,2.719
10,3,4,25,4,2,2,2,427,1,1.551
10,3,4,26,8,8,4,3,195,1,5.535
10,3,4,27,8,4,0,4,1146,1,1.816
10,3,4,28,4,4,4,4,951,1,2.552
10,3,5,1,6,0,0,6,258,1,-1
10,3,5,2,6,4,4,1,198,1,4.126
10,3,5,3,8,6,4,7,1051,1,2.58
10,3,5,4,6,2,2,2,1194,1,2.676
10,3,5,5,8,8,4,4,48,2,7.643
10,3,5,6,4,4,0,4,1022,1,1.524
10,3,5,7,8,8,0,5,671,1,1.88
10,3,5,8,8,2,0,4,1168,1,1.361
10,3,5,9,6,1,1,1,153,1,1.728
10,3,5,10,8,2,2,2,139,1,7.368
10,3,5,11,6,2,0,5,796,1,1.671
10,3,5,12,2,2,0,1,187,1,1.355
10,3,5,13,2,2,2,2,188,1,1.341
10,3,5,14,8,6,0,4,162,2,7.66
10,3,5,15,8,0,0,2,1009,1,-1
10,3,5,16,2,1,1,1,213,1,1.412
10,3,5,17,4,0,0,1,881,1,-1
10,3,5,18,4,1,1,2,971,1,1.816
10,3,5,19,2,0,0,1,817,1,-1
10,3,5,20,8,4,0,6,100,1,2.095
10,3,5,21,4,4,4,4,1001,1,2.468
10,3,5,22,4,2,0,2,641,1,1.905
10,3,5,23,6,6,0,2,689,1,3.409
10,3,5,24,8,1,1,8,969,1,1.304
10,3,5,25,6,6,4,3,674,1,1.667
10,3,5,26,6,4,0,6,846,1,1.69
10,3,5,27,8,4,4,2,1020,1,3.886
10,3,5,28,4,2,2,1,715,1,1.342
10,3,6,1,8,1,1,7,443,1,1.719
10,3,6,2,8,4,4,6,749,1,2.596
10,3,6,3,6,2,0,3,883,1,1.477
10,3,6,4,8,2,2,8,591,1,1.725
10,3,6,5,6,0,0,5,515,1,-1
10,3,6,6,6,4,0,1,1108,1,2.821
10,3,6,7,8,8,4,6,365,1,8.067
10,3,6,8,2,2,2,1,602,1,1.53
10,3,6,9,4,1,1,1,909,1,1.427
10,3,6,10,8,2,0,7,182,1,1.323
10,3,6,11,2,1,1,2,632,1,1.392
10,3,6,12,2,2,0,2,1087,1,1.265
10,3,6,13,8,0,0,5,45,3,-1
10,3,6,14,8,6,4,5,251,1,1.968
10,3,6,15,4,0,0,2,147,1,-1
10,3,6,16,4,4,0,3,945,1,4.859
10,3,6,17,6,6,4,4,168,1,1.681
10,3,6,18,8,4,0,7,87,1,1.568
10,3,6,19,6,4,4,4,92,1,1.886
10,3,6,20,4,2,2,3,579,1,1.596
10,3,6,21,6,2,2,3,887,1,1.56
10,3,6,22,4,4,4,3,371,1,1.813
10,3,6,23,4,2,0,4,228,1,1.403
10,3,6,24,6,6,0,3,648,1,2.262
10,3,6,25,2,0,0,2,334,1,-1
10,3,6,26,8,8,0,8,107,1,6.51
10,3,6,27,8,6,0,1,1143,1,4.192
10,3,6,28,6,1,1,5,780,1,2.193
10,3,7,1,4,0,0,3,492,1,-1
10,3,7,2,8,4,0,2,996,1,3.033
10,3,7,3,2,2,2,2,51,1,1.953
10,3,7,4,4,4,0,1,119,1,1.667
10,3,7,5,8,8,4,8,707,1,1.92
10,3,7,6,2,0,0,2,81,1,-1
10,3,7,7,2,1,1,2,109,1,1.474
10,3,7,8,8,6,4,4,1169,1,7.041
10,3,7,9,2,2,0,2,768,1,1.315
10,3,7,10,6,4,4,3,556,1,2.291
10,3,7,11,4,1,1,3,101,1,1.76
10,3,7,12,8,2,0,8,272,1,1.509
10,3,7,13,4,4,4,2,617,1,2.044
10,3,7,14,4,2,0,1,988,1,1.679
10,3,7,15,8,6,0,3,185,1,5.347
10,3,7,16,8,1,1,3,927,1,2.05
10,3,7,17,8,8,0,4,801,2,8.324
10,3,7,18,8,2,2,5,812,1,2.947
10,3,7,19,6,4,0,2,1030,1,1.987
10,3,7,20,6,6,4,1,100,1,4.049
10,3,7,21,6,2,2,6,859,1,1.991
10,3,7,22,8,4,4,4,358,2,7.677
10,3,7,23,6,1,1,3,795,1,1.762
10,3,7,24,4,2,2,4,82,1,1.772
10,3,7,25,6,6,0,3,1065,1,10.134
10,3,7,26,6,2,0,3,798,1,1.647
10,3,7,27,8,0,0,3,536,1,-1
10,3,7,28,6,0,0,1,221,1,-1
10,3,8,1,4,4,0,2,1066,1,1.988
10,3,8,2,8,2,2,1,874,1,2.202
10,3,8,3,2,2,2,1,950,1,1.276
10,3,8,4,8,6,4,6,539,1,3.526
10,3,8,5,6,4,0,3,762,1,6.906
10,3,8,6,4,0,0,4,434,1,-1
10,3,8,7,8,2,0,3,721,2,3.609
10,3,8,8,8,4,0,1,609,1,5.552
10,3,8,9,8,8,0,6,878,1,10.089
10,3,8,10,8,1,1,6,96,1,1.238
10,3,8,11,8,6,0,5,982,1,2.662
10,3,8,12,6,2,2,4,243,2,5.354
10,3,8,13,6,6,4,2,145,1,1.584
10,3,8,14,2,2,0,1,746,1,1.268
10,3,8,15,6,6,0,5,361,1,4.049
10,3,8,16,4,2,2,2,157,1,1.219
10,3,8,17,4,2,0,3,755,1,1.399
10,3,8,18,8,0,0,8,289,1,-1
10,3,8,19,6,1,1,4,1121,1,1.23
10,3,8,20,6,0,0,5,793,1,-1
10,3,8,21,4,4,4,1,666,1,1.876
10,3,8,22,8,4,4,7,577,1,2.137
10,3,8,23,2,0,0,1,366,1,-1
10,3,8,24,6,2,0,1,716,1,1.837
10,3,8,25,2,1,1,1,893,1,1.534
10,3,8,26,8,8,4,7,1110,1,1.813
10,3,8,27,6,4,4,5,174,1,2.52
10,3,8,28,4,1,1,4,120,1,1.285
11,1,1,1,6,4,4,6,785,1,4.784
11,1,1,2,8,8,0,7,560,2,7.441
11,1,1,3,6,6,0,3,1106,1,6.936
11,1,1,4,8,4,4,3,840,1,9.787
11,1,1,5,6,4,0,3,1053,1,12.407
11,1,1,6,2,2,0,2,551,1,1.863
11,1,1,7,4,2,0,4,1050,1,1.981
11,1,1,8,8,4,0,7,372,2,11.209
11,1,1,9,2,2,2,1,190,1,1.803
11,1,1,10,8,1,1,5,201,1,7.93
11,1,1,11,8,2,2,2,44,1,6.189
11,1,1,12,6,6,4,6,415,1,3.346
11,1,1,13,6,2,0,4,1049,1,2.772
11,1,1,14,4,4,0,3,926,1,7.521
11,1,1,15,8,6,0,5,402,1,12.25
11,1,1,16,8,2,0,5,741,1,1.881
11,1,1,17,2,1,1,1,848,1,0.978
11,1,1,18,8,6,4,4,614,1,10.966
11,1,1,19,4,2,2,2,271,1,2.23
11,1,1,20,8,8,4,1,147,1,13.031
11,1,1,21,8,0,0,3,54,3,-1
11,1,1,22,6,2,2,6,875,1,2.235
11,1,1,23,6,0,0,2,74,1,-1
11,1,1,24,4,4,4,4,73,1,1.955
11,1,1,25,6,1,1,2,671,1,2.321
11,1,1,26,4,0,0,4,50,1,-1
11,1,1,27,4,1,1,1,207,1,1.725
11,1,1,28,2,0,0,1,738,1,-1
11,1,2,1,8,6,0,7,573,1,6.277
11,1,2,2,6,2,0,3,350,1,2.701
11,1,2,3,2,1,1,2,344,1,1.29
11,1,2,4,4,4,4,1,604,1,3.823
11,1,2,5,8,6,4,3,55,1,4.616
11,1,2,6,4,2,0,2,100,1,2.883
11,1,2,7,2,2,0,1,718,1,1.216
11,1,2,8,8,8,0,6,933,2,11.712
11,1,2,9,2,0,0,2,637,1,-1
11,1,2,10,8,1,1,6,804,1,4.604
11,1,2,11,2,2,2,2,802,1,2.173
11,1,2,12,8,4,0,2,852,1,2.029
11,1,2,13,8,2,2,7,949,1,20.158
11,1,2,14,8,0,0,6,997,3,-1
11,1,2,15,6,6,0,5,486,1,4.534
11,1,2,16,8,4,4,7,183,1,7.772
11,1,2,17,4,0,0,1,334,3,-1
11,1,2,18,4,4,0,1,506,1,1.14
11,1,2,19,6,4,0,4,1122,1,7.011
11,1,2,20,6,6,4,5,1076,2,8.475
11,1,2,21,6,0,0,6,749,1,-1
11,1,2,22,4,2,2,4,824,1,3.171
11,1,2,23,6,1,1,1,757,1,1.65
11,1,2,24,4,1,1,2,332,1,1.067
11,1,2,25,6,4,4,3,599,1,5.12
11,1,2,26,6,2,2,2,894,1,5.783
11,1,2,27,8,8,4,6,385,1,17.24
11,1,2,28,8,2,0,8,987,1,2.823
11,1,3,1,2,0,0,2,622,1,-1
11,1,3,2,8,4,0,5,300,1,5.187
11,1,3,3,8,0,0,1,205,1,-1
11,1,3,4,8,4,4,4,820,2,11.685
11,1,3,5,6,6,4,4,1047,1,6.386
11,1,3,6,6,0,0,5,476,1,-1
11,1,3,7,8,1,1,3,41,1,2.642
11,1,3,8,8,2,2,1,898,1,3.405
11,1,3,9,4,4,0,4,543,1,3.07
11,1,3,10,8,8,0,5,313,1,5.668
11,1,3,11,8,6,4,7,8,1,5.932
11,1,3,12,2,2,0,2,666,1,1.721
11,1,3,13,8,2,0,6,558,1,4.439
11,1,3,14,4,4,4,2,88,1,3.998
11,1,3,15,4,0,0,2,563,3,-1
11,1,3,16,6,6,0,2,789,1,2.854
11,1,3,17,2,2,2,2,1067,1,1.029
11,1,3,18,4,2,0,3,782,1,2.44
11,1,3,19,6,4,0,5,447,1,15.157
11,1,3,20,6,1,1,5,413,1,3.048
11,1,3,21,6,2,2,5,487,1,4.439
11,1,3,22,8,6,0,2,1154,1,12.386
11,1,3,23,4,2,2,1,33,1,2.901
11,1,3,24,8,8,4,3,512,2,16.115
11,1,3,25,6,4,4,4,399,1,11.091
11,1,3,26,4,1,1,3,454,1,2.834
11,1,3,27,6,2,0,6,642,1,1.775
11,1,3,28,2,1,1,2,48,1,1.741
11,1,4,1,8,2,2,6,404,1,5.379
11,1,4,2,8,1,1,4,128,1,2.958
11,1,4,3,6,4,4,5,1024,1,1.42
11,1,4,4,4,1,1,4,29,1,1.184
11,1,4,5,8,8,0,2,382,2,10.419
11,1,4,6,8,4,0,6,307,1,6.568
11,1,4,7,8,2,0,3,214,1,2.968
11,1,4,8,8,4,4,1,934,1,4.664
11,1,4,9,6,4,0,1,967,1,1.885
11,1,4,10,2,2,2,1,277,1,1.452
11,1,4,11,6,0,0,3,449,3,-1
11,1,4,12,8,6,4,8,320,1,8.047
11,1,4,13,8,6,0,3,304,1,6.109
11,1,4,14,4,0,0,3,627,2,-1
11,1,4,15,8,0,0,5,431,2,-1
11,1,4,16,6,2,0,2,657,1,2.36
11,1,4,17,4,4,4,3,774,1,1.12
11,1,4,18,2,1,1,1,462,1,1.623
11,1,4,19,6,6,0,1,288,1,5.573
11,1,4,20,4,2,2,3,624,1,7.693
11,1,4,21,4,4,0,2,171,1,3.317
11,1,4,22,8,8,4,4,19,2,9.244
11,1,4,23,6,6,4,2,675,1,8.299
11,1,4,24,2,0,0,1,52,1,-1
11,1,4,25,4,2,0,1,443,1,1.565
11,1,4,26,6,2,2,1,796,1,2.141
11,1,4,27,6,1,1,4,217,1,2.038
11,1,4,28,2,2,0,1,759,1,1.406
11,1,5,1,6,2,2,3,370,1,3.664
11,1,5,2,6,4,4,2,410,1,4.944
11,1,5,3,2,2,2,2,729,1,2.096
11,1,5,4,2,0,0,2,467,1,-1
11,1,5,5,4,4,4,3,436,1,6.289
11,1,5,6,6,1,1,6,249,1,4.082
11,1,5,7,8,8,0,1,139,1,2.855
11,1,5,8,8,6,0,1,598,1,1.998
11,1,5,9,8,0,0,7,405,1,-1
11,1,5,10,2,1,1,2,906,1,1.69
11,1,5,11,8,8,4,8,664,1,5.054
11,1,5,12,2,2,0,2,1079,1,1.471
11,1,5,13,8,2,2,4,1198,1,2.612
11,1,5,14,4,4,0,1,851,1,1.133
11,1,5,15,8,1,1,1,693,1,1.369
11,1,5,16,6,2,0,1,263,1,1.898
11,1,5,17,6,4,0,2,727,1,12.021
11,1,5,18,6,6,4,1,504,1,3.113
11,1,5,19,4,0,0,1,59,1,-1
11,1,5,20,4,2,2,1,837,1,1.788
11,1,5,21,4,2,0,4,499,1,1.228
11,1,5,22,8,2,0,4,971,2,8.734
11,1,5,23,6,6,0,6,708,1,3.013
11,1,5,24,8,4,4,6,874,1,4.484
11,1,5,25,4,1,1,4,1089,1,2.449
11,1,5,26,8,6,4,2,701,1,4.471
11,1,5,27,6,0,0,1,1159,3,-1
11,1,5,28,8,4,0,8,853,1,2.261
11,1,6,1,8,6,4,1,385,1,3.639
11,1,6,2,2,0,0,1,321,1,-1
11,1,6,3,6,0,0,4,417,3,-1
11,1,6,4,8,2,2,8,24,1,1.068
11,1,6,5,8,0,0,4,309,3,-1
11,1,6,6,4,2,2,4,453,1,1.054
11,1,6,7,8,1,1,8,697,1,1.655
11,1,6,8,6,2,2,4,109,1,6.811
11,1,6,9,6,1,1,3,809,1,5.415
11,1,6,10,6,4,4,1,754,1,2.781
11,1,6,11,4,2,0,3,87,1,1.451
11,1,6,12,6,2,0,5,714,1,2.585
11,1,6,13,8,8,0,3,647,2,16.442
11,1,6,14,8,8,4,2,655,1,12.813
11,1,6,15,2,2,0,1,241,1,1.583
11,1,6,16,8,6,0,4,120,1,11.967
11,1,6,17,4,1,1,2,316,1,2.283
11,1,6,18,4,0,0,2,32,3,-1
11,1,6,19,4,4,0,4,152,1,1.474
11,1,6,20,8,4,0,4,635,2,5.437
11,1,6,21,4,4,4,4,1073,1,1.704
11,1,6,22,8,2,0,2,164,1,2.851
11,1,6,23,2,2,2,1,146,1,1.031
11,1,6,24,8,4,4,8,322,1,5.629
11,1,6,25,6,6,0,4,1094,1,14.408
11,1,6,26,6,4,0,6,1168,1,1.767
11,1,6,27,6,6,4,3,369,2,19.685
11,1,6,28,2,1,1,1,911,1,0.791
11,1,7,1,8,4,0,1,514,1,1.969
11,1,7,2,4,4,4,1,588,1,1.949
11,1,7,3,8,1,1,7,1039,1,3.293
11,1,7,4,6,0,0,2,629,3,-1
11,1,7,5,2,1,1,2,783,1,1.114
11,1,7,6,6,4,4,4,440,1,9.175
11,1,7,7,4,1,1,3,162,1,3.002
11,1,7,8,8,6,0,6,803,1,19.614
11,1,7,9,8,4,4,2,731,1,4.147
11,1,7,10,2,2,2,1,353,1,1.088
11,1,7,11,8,6,4,5,74,1,19.891
11,1,7,12,2,0,0,2,985,1,-1
11,1,7,13,8,2,2,3,757,3,15.043
11,1,7,14,8,0,0,2,1061,3,-1
11,1,7,15,6,2,0,5,1137,1,2.492
11,1,7,16,4,4,0,3,265,1,2.411
11,1,7,17,4,2,0,2,751,1,3.412
11,1,7,18,8,8,4,7,660,1,1.026
11,1,7,19,4,2,2,2,562,1,3.164
11,1,7,20,8,2,0,7,187,1,1.393
11,1,7,21,6,4,0,2,30,1,8.224
11,1,7,22,6,1,1,1,1119,1,1.022
11,1,7,23,6,2,2,6,683,1,1.231
11,1,7,24,6,6,0,3,13,1,11.96
11,1,7,25,6,6,4,6,323,1,3.024
11,1,7,26,8,8,0,4,363,2,7.772
11,1,7,27,4,0,0,4,4,1,-1
11,1,7,28,2,2,0,2,404,1,2.316
11,2,1,1,4,1,1,3,550,1,3.199
11,2,1,2,2,2,2,2,288,1,1.398
11,2,1,3,8,1,1,2,100,1,2.568
11,2,1,4,8,6,0,2,892,1,2.247
11,2,1,5,8,8,0,6,787,2,6.047
11,2,1,6,8,2,0,7,1183,2,4.042
11,2,1,7,6,4,4,6,611,1,4.263
11,2,1,8,6,4,0,1,423,1,1.278
11,2,1,9,4,4,4,1,312,1,2.284
11,2,1,10,8,4,0,6,356,2,7.248
11,2,1,11,6,0,0,5,1197,1,-1
11,2,1,12,8,0,0,7,804,1,-1
11,2,1,13,8,4,4,6,54,1,22.562
11,2,1,14,8,6,4,1,961,1,12.526
11,2,1,15,6,2,2,6,50,1,3.962
11,2,1,16,6,6,4,4,656,1,6.227
11,2,1,17,4,2,0,4,519,1,1.134
11,2,1,18,2,2,0,2,773,1,0.787
11,2,1,19,4,0,0,2,533,1,-1
11,2,1,20,2,0,0,1,298,1,-1
11,2,1,21,4,4,0,1,471,1,1.64
11,2,1,22,6,1,1,4,894,1,14.075
11,2,1,23,6,6,0,1,1080,1,2.684
11,2,1,24,6,2,0,6,873,1,1.661
11,2,1,25,8,2,2,7,671,2,3.301
11,2,1,26,2,1,1,1,250,1,0.988
11,2,1,27,8,8,4,7,768,1,15.938
11,2,1,28,4,2,2,1,158,1,1.527
11,2,2,1,6,6,0,5,701,1,4.441
11,2,2,2,6,6,4,5,839,1,4.482
11,2,2,3,8,0,0,3,157,3,-1
11,2,2,4,8,4,0,8,1161,1,1.661
11,2,2,5,6,4,0,3,114,1,2.284
11,2,2,6,6,0,0,2,15,3,-1
11,2,2,7,4,4,4,2,433,1,2.647
11,2,2,8,6,2,2,1,480,1,3.529
11,2,2,9,8,2,0,2,85,2,3.143
11,2,2,10,4,2,2,4,1077,1,1.68
11,2,2,11,8,8,0,5,431,1,8.223
11,2,2,12,8,6,0,4,624,2,7.306
11,2,2,13,8,2,2,4,907,1,4.421
11,2,2,14,4,1,1,4,167,1,1.183
11,2,2,15,2,0,0,2,321,1,-1
11,2,2,16,2,1,1,2,318,1,1.021
11,2,2,17,4,4,0,2,1133,1,1.741
11,2,2,18,4,2,0,2,899,1,1.718
11,2,2,19,8,8,4,2,320,1,7.198
11,2,2,20,8,6,4,6,294,2,6.38
11,2,2,21,6,1,1,2,163,1,4.467
11,2,2,22,2,2,2,1,172,1,0.901
11,2,2,23,6,2,0,1,404,1,1.295
11,2,2,24,8,1,1,1,658,3,0.88
11,2,2,25,2,2,0,1,189,1,1.16
11,2,2,26,6,4,4,4,748,1,5.696
11,2,2,27,4,0,0,3,334,3,-1
11,2,2,28,8,4,4,4,1184,2,9.742
11,2,3,1,8,2,0,5,686,1,1.899
11,2,3,2,6,4,0,2,401,1,1.349
11,2,3,3,8,0,0,4,45,3,-1
11,2,3,4,2,0,0,2,483,1,-1
11,2,3,5,2,2,2,1,340,1,1.444
11,2,3,6,8,4,0,1,98,1,1.952
11,2,3,7,8,6,0,7,900,1,3.2
11,2,3,8,8,4,4,8,170,1,3.419
11,2,3,9,6,0,0,1,53,3,-1
11,2,3,10,4,4,4,4,850,1,1.41
11,2,3,11,4,4,0,4,35,1,0.879
11,2,3,12,6,4,4,5,679,1,3.489
11,2,3,13,6,2,2,2,972,1,1.827
11,2,3,14,2,2,0,2,468,1,0.934
11,2,3,15,4,1,1,1,143,1,1.48
11,2,3,16,4,2,0,1,302,1,0.801
11,2,3,17,6,6,4,3,674,1,3.011
11,2,3,18,6,6,0,4,102,1,6.805
11,2,3,19,8,1,1,5,759,1,5.184
11,2,3,20,8,6,4,8,200,1,1.517
11,2,3,21,8,8,4,3,1061,2,2.92
11,2,3,22,8,8,0,8,549,1,2.046
11,2,3,23,8,2,2,1,615,1,3.577
11,2,3,24,6,2,0,3,105,1,2.301
11,2,3,25,6,1,1,3,631,1,1.746
11,2,3,26,2,1,1,2,10,1,0.955
11,2,3,27,4,0,0,4,339,1,-1
11,2,3,28,4,2,2,3,680,1,2.751
11,2,4,1,8,4,0,4,944,2,3.448
11,2,4,2,4,2,0,3,497,1,4.01
11,2,4,3,6,2,2,5,479,1,3.159
11,2,4,4,6,0,0,3,553,3,-1
11,2,4,5,2,1,1,1,688,1,0.898
11,2,4,6,8,1,1,3,785,1,2.244
11,2,4,7,8,8,4,8,916,1,1.095
11,2,4,8,6,6,0,2,132,1,1.876
11,2,4,9,4,0,0,1,161,3,-1
11,2,4,10,6,6,4,6,689,1,3.863
11,2,4,11,8,2,2,2,958,1,2.014
11,2,4,12,8,0,0,5,759,3,-1
11,2,4,13,8,6,0,6,803,1,8.321
11,2,4,14,2,2,2,2,646,1,1.001
11,2,4,15,4,4,4,3,363,1,3.782
11,2,4,16,8,4,4,7,918,1,4.731
11,2,4,17,4,2,2,2,1187,1,5.186
11,2,4,18,6,4,4,1,357,1,2.796
11,2,4,19,8,8,0,2,91,2,9.653
11,2,4,20,4,1,1,2,388,1,1.258
11,2,4,21,8,6,4,4,393,3,8.487
11,2,4,22,2,0,0,1,818,1,-1
11,2,4,23,8,2,0,6,950,1,6.089
11,2,4,24,6,1,1,1,63,1,1.265
11,2,4,25,2,2,0,1,1138,1,1.45
11,2,4,26,6,4,0,6,685,1,1.443
11,2,4,27,4,4,0,3,470,1,1.944
11,2,4,28,6,2,0,5,968,1,1.387
11,2,5,1,4,2,2,2,639,1,0.955
11,2,5,2,8,2,0,3,1171,2,4.418
11,2,5,3,8,6,4,7,940,1,4.594
11,2,5,4,2,2,2,1,963,1,1.067
11,2,5,5,8,2,2,5,445,1,3.458
11,2,5,6,4,0,0,3,1164,1,-1
11,2,5,7,6,4,4,3,384,3,16.139
11,2,5,8,8,4,4,5,84,3,7.483
11,2,5,9,6,1,1,6,797,1,1.375
11,2,5,10,6,6,4,1,715,1,5.065
11,2,5,11,8,8,4,1,217,1,1.628
11,2,5,12,6,2,0,4,857,2,2.756
11,2,5,13,4,4,0,3,1097,1,1.856
11,2,5,14,4,2,0,3,537,1,2.637
11,2,5,15,2,1,1,2,502,1,0.927
11,2,5,16,8,1,1,6,544,1,1.3
11,2,5,17,2,2,0,2,494,1,0.965
11,2,5,18,8,4,0,2,878,2,7.046
11,2,5,19,6,4,0,4,1167,1,2.833
11,2,5,20,2,0,0,2,587,1,-1
11,2,5,21,8,0,0,1,1087,3,-1
11,2,5,22,8,8,0,7,683,1,5.357
11,2,5,23,4,4,4,3,1139,1,1.619
11,2,5,24,6,0,0,4,1154,3,-1
11,2,5,25,6,2,2,3,16,1,1.892
11,2,5,26,4,1,1,3,523,1,1.174
11,2,5,27,8,6,0,8,229,1,2.894
11,2,5,28,6,6,0,6,107,1,2.222
11,2,6,1,4,4,4,4,861,1,1.762
11,2,6,2,6,2,0,2,853,1,1.13
11,2,6,3,2,0,0,1,933,1,-1
11,2,6,4,8,1,1,8,1017,1,1.315
11,2,6,5,8,4,4,2,1110,1,1.99
11,2,6,6,2,2,2,2,590,1,0.931
11,2,6,7,6,4,0,5,893,1,3.644
11,2,6,8,8,2,2,8,588,1,1.666
11,2,6,9,2,1,1,1,643,1,0.925
11,2,6,10,4,1,1,1,368,1,0.814
11,2,6,11,6,2,2,4,1068,2,2.085
11,2,6,12,8,4,0,3,753,1,4.532
11,2,6,13,4,2,2,4,43,1,1.212
11,2,6,14,2,2,0,1,186,1,0.795
11,2,6,15,6,0,0,6,766,3,-1
11,2,6,16,8,8,4,6,443,1,8.998
11,2,6,17,8,8,0,1,543,2,9.848
11,2,6,18,8,6,4,3,420,2,5.689
11,2,6,19,8,6,0,3,649,1,15.904
11,2,6,20,6,1,1,5,753,1,2.565
11,2,6,21,4,0,0,4,144,1,-1
11,2,6,22,6,6,4,2,1038,2,11.953
11,2,6,23,4,4,0,1,487,1,1.565
11,2,6,24,8,2,0,1,715,1,1.134
11,2,6,25,4,2,0,4,214,1,0.902
11,2,6,26,8,0,0,2,1190,3,-1
11,2,6,27,6,6,0,3,1052,1,4.084
11,2,6,28,6,4,4,2,708,1,1.975
11,2,7,1,8,8,4,4,854,1,12.746
11,2,7,2,6,2,2,3,108,1,3.698
11,2,7,3,6,1,1,6,329,1,0.903
11,2,7,4,8,2,0,4,45,1,2.043
11,2,7,5,6,4,4,1,809,1,3.121
11,2,7,6,8,6,0,1,766,1,1.891
11,2,7,7,2,1,1,1,536,1,0.944
11,2,7,8,4,4,0,2,673,1,2.769
11,2,7,9,2,2,0,2,497,1,1.023
11,2,7,10,8,8,0,3,1190,1,2.505
11,2,7,11,8,4,4,1,311,1,2.243
11,2,7,12,4,0,0,1,85,3,-1
11,2,7,13,4,2,0,1,980,1,0.982
11,2,7,14,6,4,0,2,740,1,2.429
11,2,7,15,4,2,2,1,770,1,1.683
11,2,7,16,8,4,0,7,656,1,1.684
11,2,7,17,2,0,0,1,1118,1,-1
11,2,7,18,8,0,0,8,1074,3,-1
11,2,7,19,8,2,2,3,1113,1,2.083
11,2,7,20,4,1,1,2,952,1,1.421
11,2,7,21,4,4,4,2,1116,1,1.986
11,2,7,22,6,2,0,2,848,1,1.126
11,2,7,23,6,6,0,1,741,1,2.894
11,2,7,24,2,2,2,2,529,1,1.253
11,2,7,25,6,0,0,4,480,3,-1
11,2,7,26,8,1,1,7,27,1,1.57
11,2,7,27,8,6,4,5,659,1,5.203
11,2,7,28,6,6,4,4,694,1,5.798
11,2,8,1,8,0,0,6,244,3,-1
11,2,8,2,8,4,4,3,1014,1,3.391
11,2,8,3,6,2,2,6,1139,1,1.445
11,2,8,4,4,2,2,3,322,1,0.831
11,2,8,5,6,1,1,1,779,1,1.038
11,2,8,6,8,8,0,4,537,2,5.393
11,2,8,7,2,0,0,2,868,1,-1
11,2,8,8,6,2,0,6,216,1,2.302
11,2,8,9,6,4,4,2,422,1,2.629
11,2,8,10,8,2,2,6,614,1,4.049
11,2,8,11,6,4,0,3,409,1,9.532
11,2,8,12,8,1,1,4,648,1,7.226
11,2,8,13,4,2,0,2,16,1,1.452
11,2,8,14,6,0,0,2,85,3,-1
11,2,8,15,2,1,1,2,131,1,1.537
11,2,8,16,4,4,4,1,32,1,2.229
11,2,8,17,8,2,0,8,450,1,1.091
11,2,8,18,8,6,4,2,827,1,7.45
11,2,8,19,6,6,0,2,516,1,3.082
11,2,8,20,4,0,0,2,1061,3,-1
11,2,8,21,8,4,0,5,851,1,4.294
11,2,8,22,4,1,1,4,970,1,1.506
11,2,8,23,6,6,4,5,1111,1,2.951
11,2,8,24,4,4,0,4,713,1,1.073
11,2,8,25,8,8,4,5,561,2,19.523
11,2,8,26,8,6,0,5,167,1,6.218
11,2,8,27,2,2,0,1,499,1,0.679
11,2,8,28,2,2,2,1,340,1,0.882
11,3,1,1,6,4,4,5,538,1,5.102
11,3,1,2,6,6,4,2,724,1,3.567
11,3,1,3,8,4,0,4,380,1,8.726
11,3,1,4,4,0,0,1,132,3,-1
11,3,1,5,6,1,1,4,190,1,2.555
11,3,1,6,8,6,4,4,665,1,8.213
11,3,1,7,8,8,4,6,350,1,14.682
11,3,1,8,4,1,1,4,646,1,1.089
11,3,1,9,8,8,0,5,827,1,3.543
11,3,1,10,6,0,0,1,506,3,-1
11,3,1,11,4,2,2,2,1067,1,2.209
11,3,1,12,4,4,4,2,966,1,1.995
11,3,1,13,6,6,0,1,1141,1,2.485
11,3,1,14,2,2,0,2,979,1,0.887
11,3,1,15,4,2,0,4,282,1,0.871
11,3,1,16,8,4,4,5,630,2,6.526
11,3,1,17,8,0,0,4,196,3,-1
11,3,1,18,4,4,0,2,154,1,5.57
11,3,1,19,2,1,1,2,202,1,1.051
11,3,1,20,6,4,0,1,961,1,1.415
11,3,1,21,8,2,0,1,1125,1,1.116
11,3,1,22,8,2,2,5,280,1,4.233
11,3,1,23,2,2,2,2,1117,1,1.109
11,3,1,24,6,2,2,2,11,1,1.616
11,3,1,25,8,6,0,8,1098,1,2.51
11,3,1,26,2,0,0,2,666,1,-1
11,3,1,27,6,2,0,5,288,1,1.439
11,3,1,28,8,1,1,2,185,1,1.426
11,3,2,1,4,2,2,1,262,1,1.927
11,3,2,2,8,6,0,1,47,1,1.515
11,3,2,3,8,6,4,1,497,1,5.15
11,3,2,4,4,4,0,3,409,1,2.125
11,3,2,5,8,8,0,4,713,2,10.389
11,3,2,6,8,4,4,4,303,2,6.227
11,3,2,7,6,6,0,6,895,1,1.197
11,3,2,8,6,1,1,1,926,1,1.07
11,3,2,9,8,8,4,2,445,1,4.856
11,3,2,10,4,4,4,3,486,2,2.377
11,3,2,11,6,2,2,6,623,1,2.027
11,3,2,12,4,1,1,1,384,1,0.986
11,3,2,13,2,2,2,1,337,1,0.907
11,3,2,14,8,2,2,6,861,3,8.745
11,3,2,15,8,4,0,7,314,2,23.535
11,3,2,16,8,0,0,7,349,1,-1
11,3,2,17,6,4,0,3,90,1,1.426
11,3,2,18,8,1,1,8,419,1,1.426
11,3,2,19,6,4,4,2,150,1,3.805
11,3,2,20,4,0,0,4,713,3,-1
11,3,2,21,2,2,0,1,690,1,1.24
11,3,2,22,8,2,0,8,924,1,1.959
11,3,2,23,6,2,0,6,1040,1,1.58
11,3,2,24,2,0,0,1,484,1,-1
11,3,2,25,2,1,1,1,819,1,2.133
11,3,2,26,4,2,0,3,556,1,2.622
11,3,2,27,6,6,4,4,1143,1,4.19
11,3,2,28,6,0,0,2,505,3,-1
11,3,3,1,8,4,4,7,1096,2,14.647
11,3,3,2,2,2,0,2,44,1,2.084
11,3,3,3,6,0,0,6,115,3,-1
11,3,3,4,2,1,1,2,424,1,0.867
11,3,3,5,6,1,1,5,548,1,7.414
11,3,3,6,8,4,0,3,906,1,10.527
11,3,3,7,6,2,2,4,1133,1,3.202
11,3,3,8,4,0,0,3,981,1,-1
11,3,3,9,6,4,4,3,465,1,3.927
11,3,3,10,4,2,2,3,814,1,1.01
11,3,3,11,4,2,0,1,800,1,0.989
11,3,3,12,4,4,4,1,1130,1,2.509
11,3,3,13,8,2,0,3,852,1,3.553
11,3,3,14,8,6,0,6,1105,2,12.069
11,3,3,15,6,2,0,1,1128,1,1.631
11,3,3,16,2,2,2,2,990,1,0.945
11,3,3,17,6,4,0,4,467,1,2.813
11,3,3,18,8,6,4,5,758,1,4.651
11,3,3,19,6,6,4,5,1104,1,3.582
11,3,3,20,8,8,0,6,311,1,5.183
11,3,3,21,8,2,2,4,199,3,14.278
11,3,3,22,4,4,0,4,335,1,1.669
11,3,3,23,4,1,1,2,298,1,1.447
11,3,3,24,2,0,0,1,1166,1,-1
11,3,3,25,8,8,4,4,722,1,15.512
11,3,3,26,6,6,0,3,1069,2,8.337
11,3,3,27,8,1,1,3,136,1,3.008
11,3,3,28,8,0,0,2,806,2,-1
11,3,4,1,6,6,0,5,656,1,3.04
11,3,4,2,8,8,4,7,372,2,12.474
11,3,4,3,2,2,2,1,186,1,2.244
11,3,4,4,4,4,4,4,265,1,2.008
11,3,4,5,6,4,0,6,645,1,1.573
11,3,4,6,8,1,1,6,619,1,4.993
11,3,4,7,2,2,0,1,812,1,0.836
11,3,4,8,8,4,4,1,353,2,2.348
11,3,4,9,6,6,4,3,648,1,2.672
11,3,4,10,4,2,0,2,243,1,0.937
11,3,4,11,8,2,2,2,658,1,3.232
11,3,4,12,8,6,4,3,595,2,3.533
11,3,4,13,6,0,0,5,621,3,-1
11,3,4,14,2,1,1,1,100,1,1.195
11,3,4,15,8,6,0,2,1041,1,2.724
11,3,4,16,4,1,1,3,576,1,1.708
11,3,4,17,4,4,0,1,364,1,1.947
11,3,4,18,8,2,0,7,340,2,2.825
11,3,4,19,8,4,0,1,804,1,1.819
11,3,4,20,6,1,1,6,155,1,1.151
11,3,4,21,8,8,0,7,406,1,4.948
11,3,4,22,6,2,0,4,858,1,1.817
11,3,4,23,2,0,0,2,1127,1,-1
11,3,4,24,6,4,4,1,1024,1,1.714
11,3,4,25,4,0,0,2,1006,3,-1
11,3,4,26,4,2,2,4,887,1,2.267
11,3,4,27,6,2,2,5,401,1,2.391
11,3,4,28,8,0,0,6,74,3,-1
11,3,5,1,8,2,0,2,517,1,1.716
11,3,5,2,8,6,4,2,31,2,7.031
11,3,5,3,6,0,0,3,629,3,-1
11,3,5,4,2,1,1,1,346,1,1.264
11,3,5,5,4,4,0,3,1177,1,2.209
11,3,5,6,6,1,1,3,455,1,1.227
11,3,5,7,8,4,0,6,782,1,4.529
11,3,5,8,6,6,0,4,1025,1,7.166
11,3,5,9,8,0,0,3,45,3,-1
11,3,5,10,6,4,0,2,390,1,2.452
11,3,5,11,8,8,4,1,317,1,3.43
11,3,5,12,4,2,0,1,175,1,0.918
11,3,5,13,6,4,4,6,775,1,1.421
11,3,5,14,4,0,0,4,278,1,-1
11,3,5,15,6,6,4,1,1060,1,2.558
11,3,5,16,8,1,1,4,629,1,5.95
11,3,5,17,6,2,0,3,609,1,1.649
11,3,5,18,8,6,0,3,141,1,3.404
11,3,5,19,8,8,0,2,1068,1,4.556
11,3,5,20,6,2,2,1,482,1,4.957
11,3,5,21,4,2,2,2,732,1,1.328
11,3,5,22,8,2,2,3,591,1,8.299
11,3,5,23,4,4,4,4,697,1,1.403
11,3,5,24,2,2,2,1,547,1,1.079
11,3,5,25,8,4,4,8,229,1,1.825
11,3,5,26,4,1,1,2,1154,1,1.388
11,3,5,27,2,0,0,2,1052,1,-1
11,3,5,28,2,2,0,2,792,1,1.06
11,3,6,1,4,4,4,1,310,1,3.24
11,3,6,2,4,2,0,3,1086,1,1.786
11,3,6,3,8,6,4,8,491,1,1.787
11,3,6,4,8,2,0,6,482,1,3.654
11,3,6,5,6,0,0,4,397,2,-1
11,3,6,6,6,4,0,5,36,1,3.65
11,3,6,7,4,4,0,2,526,1,3.342
11,3,6,8,2,2,2,2,781,1,1.445
11,3,6,9,4,2,2,1,129,1,1.713
11,3,6,10,6,1,1,2,178,1,1.676
11,3,6,11,6,6,0,2,1034,1,3.491
11,3,6,12,8,4,4,6,625,1,7.977
11,3,6,13,4,1,1,1,289,1,1.893
11,3,6,14,8,2,2,1,108,1,2.223
11,3,6,15,8,8,0,3,378,2,9.911
11,3,6,16,8,8,4,5,550,1,8.813
11,3,6,17,6,4,4,4,118,3,5.826
11,3,6,18,6,2,2,3,174,1,1.639
11,3,6,19,8,0,0,5,713,2,-1
11,3,6,20,8,6,0,5,1158,1,2.378
11,3,6,21,6,6,4,6,569,1,2.353
11,3,6,22,8,4,0,2,1120,1,2.151
11,3,6,23,2,2,0,1,865,1,0.777
11,3,6,24,8,1,1,5,393,1,1.514
11,3,6,25,2,0,0,1,731,1,-1
11,3,6,26,4,0,0,2,775,3,-1
11,3,6,27,6,2,0,2,960,1,1.221
11,3,6,28,2,1,1,2,352,1,1.01
11,3,7,1,8,4,0,8,565,1,1.22
11,3,7,2,8,2,0,5,780,1,2.315
11,3,7,3,4,1,1,4,82,1,1.237
11,3,7,4,8,6,4,7,886,1,1.571
11,3,7,5,4,2,0,2,247,1,0.926
11,3,7,6,8,6,0,4,169,2,5.497
11,3,7,7,6,1,1,2,646,1,1.623
11,3,7,8,6,4,0,5,152,1,1.366
11,3,7,9,4,0,0,3,1108,1,-1
11,3,7,10,4,4,4,3,706,1,3.1
11,3,7,11,2,2,2,1,54,1,1.044
11,3,7,12,4,2,2,4,1077,1,1.042
11,3,7,13,8,4,4,2,528,1,1.891
11,3,7,14,6,4,4,2,587,1,1.988
11,3,7,15,2,0,0,2,792,1,-1
11,3,7,16,8,8,4,3,295,3,14.346
11,3,7,17,2,2,0,2,157,1,0.993
11,3,7,18,8,0,0,1,862,1,-1
11,3,7,19,6,6,0,1,354,1,3.867
11,3,7,20,8,8,0,1,981,2,13.27
11,3,7,21,6,2,0,6,251,1,1.058
11,3,7,22,6,2,2,5,675,1,0.907
11,3,7,23,2,1,1,1,1102,1,0.745
11,3,7,24,4,4,0,4,1147,1,1.177
11,3,7,25,6,0,0,4,334,1,-1
11,3,7,26,8,2,2,8,705,1,1.259
11,3,7,27,6,6,4,6,620,1,1.411
11,3,7,28,8,1,1,7,1116,1,2.174
11,3,8,1,2,2,0,1,459,1,0.815
11,3,8,2,4,4,4,2,345,1,1.119
11,3,8,3,8,8,4,8,480,1,1.41
11,3,8,4,4,0,0,1,1084,1,-1
11,3,8,5,8,8,0,8,1029,1,1.023
11,3,8,6,4,4,0,1,397,1,1.519
11,3,8,7,6,2,0,5,1168,1,2.451
11,3,8,8,8,4,4,3,850,1,19.774
11,3,8,9,2,1,1,2,751,1,0.953
11,3,8,10,6,4,4,5,224,2,13.02
11,3,8,11,4,2,0,4,344,1,1.501
11,3,8,12,8,6,4,6,988,1,1.958
11,3,8,13,8,0,0,8,236,1,-1
11,3,8,14,2,0,0,1,958,1,-1
11,3,8,15,6,2,2,1,1146,1,1.353
11,3,8,16,8,2,0,4,1186,1,3.724
11,3,8,17,6,6,0,3,311,1,3.563
11,3,8,18,8,1,1,1,498,1,1.239
11,3,8,19,6,4,0,4,432,1,9.525
11,3,8,20,4,1,1,3,50,1,1.786
11,3,8,21,4,2,2,3,915,1,1.769
11,3,8,22,6,6,4,5,51,2,7.503
11,3,8,23,6,1,1,3,335,1,3.378
11,3,8,24,8,6,0,7,279,1,1.489
11,3,8,25,8,4,0,5,506,1,2.451
11,3,8,26,2,2,2,2,794,1,0.829
11,3,8,27,6,0,0,6,399,1,-1
11,3,8,28,8,2,2,7,471,1,3.505
12,1,1,1,6,2,0,2,442,1,2.942
12,1,1,2,8,0,0,3,866,3,-1
12,1,1,3,4,4,4,1,739,1,2.763
12,1,1,4,6,4,0,5,1046,1,1.31
12,1,1,5,8,4,0,3,632,1,6.275
12,1,1,6,6,2,2,1,434,2,3.284
12,1,1,7,4,1,1,4,1160,1,1.904
12,1,1,8,8,6,0,5,201,1,11.982
12,1,1,9,6,6,4,5,1126,2,4.717
12,1,1,10,6,0,0,4,1041,1,-1
12,1,1,11,4,4,0,4,726,1,1.991
12,1,1,12,4,2,2,2,1015,1,4.962
12,1,1,13,4,2,0,2,210,2,6.508
12,1,1,14,8,8,4,5,468,2,1.933
12,1,1,15,2,2,0,1,901,1,1.439
12,1,1,16,2,1,1,1,458,1,1.143
12,1,1,17,6,1,1,4,1032,1,1.747
12,1,1,18,4,0,0,1,779,1,-1
12,1,1,19,8,2,0,1,795,1,2.556
12,1,1,20,8,6,4,6,297,1,2.022
12,1,1,21,6,6,0,6,723,1,1.69
12,1,1,22,6,4,4,3,445,1,3.398
12,1,1,23,8,4,4,3,933,1,5.444
12,1,1,24,2,2,2,1,30,1,0.888
12,1,1,25,8,2,2,7,909,1,2.665
12,1,1,26,8,1,1,4,993,1,1.697
12,1,1,27,8,8,0,2,922,1,15.454
12,1,1,28,2,0,0,2,27,1,-1
12,1,2,1,6,6,0,5,938,2,3.41
12,1,2,2,6,0,0,6,186,1,-1
12,1,2,3,6,2,2,5,1070,1,1.855
12,1,2,4,4,2,0,1,682,1,1.818
12,1,2,5,6,2,0,6,366,1,1.283
12,1,2,6,8,6,4,2,827,1,6.852
12,1,2,7,8,8,4,2,487,1,10.797
12,1,2,8,8,4,0,4,488,1,5.593
12,1,2,9,8,1,1,3,889,1,1.565
12,1,2,10,8,2,0,8,401,1,1.524
12,1,2,11,2,0,0,1,244,1,-1
12,1,2,12,6,4,4,1,1189,1,1.803
12,1,2,13,8,0,0,4,269,2,-1
12,1,2,14,4,4,0,1,505,1,2.106
12,1,2,15,8,2,2,3,1,1,11.374
12,1,2,16,6,1,1,3,187,1,0.816
12,1,2,17,6,6,4,3,991,1,11.323
12,1,2,18,2,2,2,2,497,1,1.266
12,1,2,19,8,6,0,8,69,1,1.858
12,1,2,20,4,2,2,1,296,1,0.904
12,1,2,21,6,4,0,4,719,1,1.513
12,1,2,22,2,2,0,2,664,1,2.069
12,1,2,23,8,4,4,6,101,1,2.389
12,1,2,24,8,8,0,7,685,2,3.425
12,1,2,25,2,1,1,2,76,1,1.287
12,1,2,26,4,1,1,1,1192,1,1.081
12,1,2,27,4,0,0,2,796,1,-1
12,1,2,28,4,4,4,3,580,1,1.63
12,1,3,1,8,1,1,8,1133,1,1.115
12,1,3,2,4,4,4,4,1111,1,3.052
12,1,3,3,6,2,0,4,283,2,1.058
12,1,3,4,8,2,2,6,538,2,6.808
12,1,3,5,4,4,0,3,932,1,1.22
12,1,3,6,2,2,2,2,491,1,1.278
12,1,3,7,6,4,0,2,96,1,2.11
12,1,3,8,4,1,1,3,864,1,1.696
12,1,3,9,6,2,2,4,924,1,2.255
12,1,3,10,2,0,0,1,292,1,-1
12,1,3,11,6,0,0,5,921,1,-1
12,1,3,12,8,2,0,2,809,1,4.321
12,1,3,13,6,6,0,3,765,1,9.642
12,1,3,14,8,8,4,7,79,1,1.242
12,1,3,15,2,1,1,2,1185,1,1.056
12,1,3,16,8,4,4,7,1110,2,2.837
12,1,3,17,6,1,1,5,162,1,1.451
12,1,3,18,6,4,4,6,163,1,1.641
12,1,3,19,8,6,0,1,619,1,1.403
12,1,3,20,8,6,4,5,747,1,1.464
12,1,3,21,4,2,2,4,1149,1,2.124
12,1,3,22,8,4,0,1,1188,1,2.827
12,1,3,23,8,8,0,3,494,1,10.841
12,1,3,24,6,6,4,2,1067,1,8.081
12,1,3,25,4,2,0,3,1182,1,0.863
12,1,3,26,2,2,0,2,132,1,1.697
12,1,3,27,8,0,0,2,415,1,-1
12,1,3,28,4,0,0,4,972,1,-1
12,1,4,1,4,0,0,3,419,1,-1
12,1,4,2,4,2,2,3,1058,1,2.191
12,1,4,3,8,0,0,1,873,2,-1
12,1,4,4,2,1,1,1,138,1,1.039
12,1,4,5,6,6,0,2,727,1,6.751
12,1,4,6,8,8,0,5,365,2,11.528
12,1,4,7,6,6,4,4,318,2,6.932
12,1,4,8,4,2,0,4,725,1,1.168
12,1,4,9,2,0,0,2,544,1,-1
12,1,4,10,4,4,0,2,959,1,2.366
12,1,4,11,8,8,4,1,1143,1,3.176
12,1,4,12,8,2,0,7,804,1,2.339
12,1,4,13,6,4,0,3,41,2,3.724
12,1,4,14,4,4,4,2,169,1,1.873
12,1,4,15,6,4,4,5,1052,1,2.353
12,1,4,16,8,6,4,4,109,1,13.244
12,1,4,17,4,1,1,2,618,1,1.618
12,1,4,18,6,2,2,6,1077,1,4.117
12,1,4,19,8,4,4,1,610,1,2.481
12,1,4,20,6,1,1,6,678,1,1.79
12,1,4,21,8,6,0,4,402,2,9.793
12,1,4,22,8,2,2,4,652,2,11.704
12,1,4,23,2,2,2,1,516,1,1.653
12,1,4,24,2,2,0,1,1076,1,1.046
12,1,4,25,8,4,0,5,857,2,13.522
12,1,4,26,6,2,0,1,540,1,1.456
12,1,4,27,6,0,0,2,870,1,-1
12,1,4,28,8,1,1,1,728,1,1.287
12,1,5,1,6,1,1,1,978,1,1.326
12,1,5,2,4,1,1,2,955,1,1.542
12,1,5,3,2,1,1,1,905,1,1.054
12,1,5,4,8,6,0,7,214,2,1.892
12,1,5,5,8,6,4,3,1175,1,11.246
12,1,5,6,8,8,4,8,554,1,0.972
12,1,5,7,8,0,0,5,994,1,-1
12,1,5,8,8,8,0,8,465,1,1.966
12,1,5,9,8,1,1,7,527,1,0.968
12,1,5,10,2,2,0,1,287,1,1.13
12,1,5,11,8,2,0,5,463,2,4.362
12,1,5,12,6,6,0,1,180,2,2.496
12,1,5,13,6,4,0,6,939,1,1.507
12,1,5,14,4,4,0,3,432,1,3.058
12,1,5,15,2,2,2,1,275,1,1.411
12,1,5,16,6,4,4,2,453,1,7.822
12,1,5,17,6,2,2,3,967,1,4.31
12,1,5,18,4,0,0,4,207,1,-1
12,1,5,19,6,2,0,5,382,1,1.178
12,1,5,20,8,4,0,7,321,1,1.648
12,1,5,21,8,2,2,1,611,1,1.945
12,1,5,22,6,0,0,3,379,1,-1
12,1,5,23,8,4,4,2,417,1,5.639
12,1,5,24,4,2,0,1,603,1,1.407
12,1,5,25,6,6,4,1,331,1,2.554
12,1,5,26,4,2,2,4,80,1,1.632
12,1,5,27,4,4,4,3,814,1,1.023
12,1,5,28,2,0,0,1,667,1,-1
12,1,6,1,8,2,2,2,999,2,3.043
12,1,6,2,6,4,0,1,429,1,1.998
12,1,6,3,8,0,0,7,151,2,-1
12,1,6,4,2,0,0,2,572,1,-1
12,1,6,5,8,6,0,6,667,1,1.644
12,1,6,6,4,2,2,2,1177,1,2.003
12,1,6,7,4,4,4,4,988,1,1.955
12,1,6,8,4,4,0,1,642,1,5.308
12,1,6,9,6,2,0,3,408,1,1.759
12,1,6,10,8,8,0,4,877,2,12.932
12,1,6,11,6,4,4,4,908,1,9.862
12,1,6,12,4,1,1,4,135,1,1.136
12,1,6,13,2,2,2,2,406,1,1.062
12,1,6,14,8,4,4,8,604,1,1.34
12,1,6,15,6,6,4,6,846,1,1.861
12,1,6,16,8,6,4,1,1002,1,6.786
12,1,6,17,8,8,4,4,771,1,9.934
12,1,6,18,8,4,0,8,734,1,1.334
12,1,6,19,8,2,0,6,779,1,1.682
12,1,6,20,2,1,1,2,582,1,1.257
12,1,6,21,4,2,0,2,832,1,2.651
12,1,6,22,6,1,1,2,705,1,1.41
12,1,6,23,6,2,2,2,70,1,5.896
12,1,6,24,8,1,1,5,605,1,1.547
12,1,6,25,6,6,0,4,122,2,6.894
12,1,6,26,6,0,0,1,35,3,-1
12,1,6,27,2,2,0,2,688,1,1.854
12,1,6,28,4,0,0,2,1195,1,-1
12,1,7,1,2,2,0,1,457,1,1.202
12,1,7,2,8,0,0,6,1084,1,-1
12,1,7,3,2,1,1,2,1030,1,1.409
12,1,7,4,6,6,0,5,1172,1,1.578
12,1,7,5,8,6,0,2,671,1,4.984
12,1,7,6,6,0,0,1,614,1,-1
12,1,7,7,4,1,1,3,436,1,1.872
12,1,7,8,8,2,0,4,707,2,5.933
12,1,7,9,2,0,0,1,1040,1,-1
12,1,7,10,2,2,2,1,535,1,1.383
12,1,7,11,4,4,4,1,639,1,1.48
12,1,7,12,6,1,1,1,592,1,1.566
12,1,7,13,8,2,2,5,942,1,4.749
12,1,7,14,8,8,4,6,801,1,2.01
12,1,7,15,8,4,0,6,416,2,4.278
12,1,7,16,6,2,2,1,539,1,2.925
12,1,7,17,8,4,4,4,1070,1,11.495
12,1,7,18,4,0,0,3,552,1,-1
12,1,7,19,4,2,0,3,768,1,1.661
12,1,7,20,4,2,2,3,446,1,2.418
12,1,7,21,8,1,1,6,567,1,1.275
12,1,7,22,6,6,4,1,402,1,5.43
12,1,7,23,8,6,4,8,953,1,3.449
12,1,7,24,6,4,0,4,396,1,0.819
12,1,7,25,8,8,0,6,374,2,8.248
12,1,7,26,4,4,0,2,750,2,2.443
12,1,7,27,6,4,4,2,690,2,5.898
12,1,7,28,6,2,0,2,293,1,3.345
12,2,1,1,6,2,0,6,792,1,1.61
12,2,1,2,4,4,4,1,614,1,6.128
12,2,1,3,4,2,2,3,1180,1,3.133
12,2,1,4,4,0,0,4,945,1,-1
12,2,1,5,2,0,0,1,110,1,-1
12,2,1,6,6,0,0,2,1166,2,-1
12,2,1,7,4,1,1,1,122,1,1.376
12,2,1,8,8,0,0,8,373,1,-1
12,2,1,9,2,1,1,2,604,1,1.04
12,2,1,10,8,1,1,1,1068,1,1.861
12,2,1,11,4,4,0,4,979,1,1.837
12,2,1,12,8,2,0,4,1114,1,15.756
12,2,1,13,2,2,0,1,874,1,0.953
12,2,1,14,6,4,0,3,810,1,1.626
12,2,1,15,6,1,1,4,281,1,1.305
12,2,1,16,4,2,0,4,595,1,1.204
12,2,1,17,6,6,4,3,880,1,3.178
12,2,1,18,8,8,0,4,868,2,1.41
12,2,1,19,6,6,0,2,20,2,2.416
12,2,1,20,8,4,0,2,738,1,4.286
12,2,1,21,6,2,2,1,635,1,2.776
12,2,1,22,8,6,4,5,143,2,12.833
12,2,1,23,6,4,4,5,474,1,1.44
12,2,1,24,8,8,4,6,485,2,11.086
12,2,1,25,2,2,2,2,342,1,0.97
12,2,1,26,8,2,2,2,571,1,3.071
12,2,1,27,8,4,4,8,519,1,1.158
12,2,1,28,8,6,0,4,88,1,7.596
12,2,2,1,8,6,0,2,330,1,9.579
12,2,2,2,2,1,1,1,1084,1,0.993
12,2,2,3,6,2,0,1,244,1,1.415
12,2,2,4,8,2,2,8,238,1,1.346
12,2,2,5,4,1,1,3,131,1,1.192
12,2,2,6,2,2,0,2,694,1,0.87
12,2,2,7,6,2,2,6,1050,1,1.268
12,2,2,8,4,2,2,1,437,1,1.127
12,2,2,9,8,2,0,8,504,1,0.908
12,2,2,10,6,6,4,6,360,1,1.225
12,2,2,11,8,0,0,1,939,3,-1
12,2,2,12,8,1,1,3,275,1,1.735
12,2,2,13,8,8,4,3,219,1,12.747
12,2,2,14,6,4,4,4,788,1,1.492
12,2,2,15,4,0,0,2,1136,1,-1
12,2,2,16,8,8,0,6,1151,2,1.14
12,2,2,17,8,4,0,3,535,1,11.232
12,2,2,18,6,4,0,6,689,1,1.487
12,2,2,19,4,4,4,4,331,1,1.657
12,2,2,20,2,2,2,1,624,1,1.008
12,2,2,21,2,0,0,2,204,1,-1
12,2,2,22,6,0,0,6,1113,1,-1
12,2,2,23,4,2,0,2,989,1,1.372
12,2,2,24,8,6,4,7,996,1,2.783
12,2,2,25,6,6,0,5,1148,1,1.293
12,2,2,26,6,1,1,6,847,1,1.024
12,2,2,27,8,4,4,3,1057,1,4.26
12,2,2,28,4,4,0,2,649,1,0.954
12,2,3,1,4,4,0,1,482,1,1.494
12,2,3,2,6,2,2,3,52,1,6.283
12,2,3,3,6,4,0,5,248,1,1.288
12,2,3,4,8,6,0,5,654,2,1.569
12,2,3,5,6,6,4,1,1198,1,1.63
12,2,3,6,6,2,0,5,950,1,1.208
12,2,3,7,2,2,0,2,452,1,1.144
12,2,3,8,8,2,2,6,668,1,2.204
12,2,3,9,2,2,2,2,892,1,1.627
12,2,3,10,6,0,0,5,1196,1,-1
12,2,3,11,8,2,0,7,674,1,1.734
12,2,3,12,4,2,2,4,488,1,1.052
12,2,3,13,2,0,0,2,450,1,-1
12,2,3,14,4,2,0,1,814,1,1.451
12,2,3,15,4,0,0,1,501,1,-1
12,2,3,16,8,8,0,3,337,1,8.809
12,2,3,17,8,4,0,6,396,1,1.712
12,2,3,18,6,6,0,3,186,1,6.184
12,2,3,19,6,4,4,3,630,1,1.082
12,2,3,20,8,8,4,2,875,1,4.113
12,2,3,21,6,1,1,3,99,1,1.367
12,2,3,22,8,1,1,7,388,1,1.647
12,2,3,23,8,6,4,1,1013,1,1.436
12,2,3,24,2,1,1,1,458,1,0.958
12,2,3,25,4,4,4,2,646,2,5.839
12,2,3,26,8,4,4,5,1049,1,18.319
12,2,3,27,8,0,0,3,698,2,-1
12,2,3,28,4,1,1,2,729,1,2.285
12,2,4,1,8,8,4,8,1026,1,1.595
12,2,4,2,8,4,0,5,454,1,6.638
12,2,4,3,4,0,0,3,791,1,-1
12,2,4,4,6,2,0,2,503,1,6.828
12,2,4,5,8,2,2,3,12,1,6.744
12,2,4,6,6,1,1,1,910,1,1.702
12,2,4,7,2,1,1,2,948,1,1.049
12,2,4,8,4,2,0,3,161,2,2.759
12,2,4,9,8,6,4,8,29,1,1.235
12,2,4,10,6,6,4,5,1069,1,2.286
12,2,4,11,6,4,4,6,558,1,1.141
12,2,4,12,8,0,0,5,448,1,-1
12,2,4,13,8,1,1,5,1022,1,1.9
12,2,4,14,8,4,4,7,920,1,1.073
12,2,4,15,2,2,2,1,154,1,0.978
12,2,4,16,4,2,2,2,840,1,1.603
12,2,4,17,8,2,0,3,350,1,3.184
12,2,4,18,6,6,0,1,81,1,1.756
12,2,4,19,6,2,2,4,1051,1,21.243
12,2,4,20,8,6,0,7,1137,1,1.245
12,2,4,21,6,4,0,2,1044,1,3.484
12,2,4,22,6,0,0,4,915,2,-1
12,2,4,23,4,1,1,4,721,1,1.581
12,2,4,24,4,4,0,3,702,1,1.214
12,2,4,25,2,0,0,1,1197,1,-1
12,2,4,26,2,2,0,1,476,1,1.226
12,2,4,27,8,8,0,1,861,1,3.853
12,2,4,28,4,4,4,3,366,1,2.598
12,2,5,1,6,4,0,4,1019,1,1.456
12,2,5,2,2,0,0,2,963,1,-1
12,2,5,3,6,0,0,3,85,1,-1
12,2,5,4,6,6,4,2,165,1,5.287
12,2,5,5,8,0,0,4,1022,3,-1
12,2,5,6,8,2,2,7,398,1,2.785
12,2,5,7,8,6,4,2,1005,1,9.248
12,2,5,8,4,2,0,1,918,1,1.199
12,2,5,9,6,4,4,2,168,1,6.193
12,2,5,10,2,2,0,2,529,1,0.915
12,2,5,11,8,2,0,6,5,1,2.249
12,2,5,12,8,6,0,8,24,1,1.806
12,2,5,13,4,4,0,4,1173,1,1.479
12,2,5,14,4,4,4,1,818,1,1.286
12,2,5,15,6,1,1,2,622,1,2.805
12,2,5,16,8,1,1,6,50,1,1.25
12,2,5,17,2,2,2,1,1012,1,1.223
12,2,5,18,4,0,0,1,975,1,-1
12,2,5,19,4,2,2,2,138,1,1.742
12,2,5,20,6,2,2,2,427,1,2.711
12,2,5,21,8,8,4,1,882,1,3.039
12,2,5,22,8,4,0,8,486,1,1.423
12,2,5,23,8,4,4,1,726,1,4.76
12,2,5,24,8,8,0,8,790,1,1.305
12,2,5,25,2,1,1,1,565,1,1.018
12,2,5,26,6,6,0,4,844,1,0.88
12,2,5,27,6,2,0,3,670,1,3.935
12,2,5,28,4,1,1,3,75,1,0.874
12,2,6,1,6,6,0,6,74,1,1.12
12,2,6,2,8,6,0,3,595,2,13.841
12,2,6,3,8,4,0,7,1130,1,1.333
12,2,6,4,6,0,0,1,648,1,-1
12,2,6,5,6,4,0,1,66,1,3.139
12,2,6,6,8,8,0,5,784,1,15.366
12,2,6,7,8,2,2,1,1052,1,2.378
12,2,6,8,4,0,0,3,869,1,-1
12,2,6,9,8,2,0,1,1032,1,2.907
12,2,6,10,8,4,4,2,273,1,5.041
12,2,6,11,8,0,0,6,181,1,-1
12,2,6,12,6,2,2,5,784,1,1.222
12,2,6,13,4,2,2,1,1065,1,3.233
12,2,6,14,2,2,2,2,408,1,0.788
12,2,6,15,2,2,0,1,216,1,0.999
12,2,6,16,6,1,1,5,1052,1,0.978
12,2,6,17,6,2,0,4,993,2,0.922
12,2,6,18,4,1,1,1,1158,1,1.202
12,2,6,19,4,2,0,4,583,1,1.304
12,2,6,20,8,8,4,5,847,2,11.036
12,2,6,21,4,4,4,4,960,1,2.436
12,2,6,22,6,4,4,1,1139,1,3.359
12,2,6,23,2,1,1,2,455,1,0.978
12,2,6,24,8,6,4,6,549,1,21.787
12,2,6,25,6,6,4,4,115,1,2.187
12,2,6,26,2,0,0,1,560,1,-1
12,2,6,27,8,1,1,4,480,1,1.552
12,2,6,28,4,4,0,3,1055,1,1.104
12,2,7,1,4,0,0,4,1154,1,-1
12,2,7,2,8,4,4,6,938,1,1.816
12,2,7,3,6,4,4,5,89,1,1.458
12,2,7,4,6,6,0,3,213,1,5.878
12,2,7,5,6,6,4,4,428,1,3.093
12,2,7,6,2,2,2,2,772,1,0.97
12,2,7,7,6,0,0,6,533,1,-1
12,2,7,8,8,8,4,4,116,1,6.983
12,2,7,9,2,0,0,2,350,1,-1
12,2,7,10,8,4,0,1,251,1,1.857
12,2,7,11,8,6,0,1,904,1,5.038
12,2,7,12,8,2,0,2,802,1,2.28
12,2,7,13,4,4,0,1,889,1,2.27
12,2,7,14,4,4,4,2,357,1,2.862
12,2,7,15,8,6,4,4,1135,2,8.224
12,2,7,16,2,2,0,2,294,1,1.057
12,2,7,17,6,1,1,3,317,1,1.307
12,2,7,18,6,2,0,4,225,1,1.578
12,2,7,19,6,4,0,2,960,1,3.178
12,2,7,20,6,2,2,5,812,1,8.025
12,2,7,21,8,2,2,4,255,1,4.608
12,2,7,22,4,1,1,2,655,1,1.116
12,2,7,23,2,1,1,2,160,1,0.918
12,2,7,24,4,2,0,2,1106,1,1.813
12,2,7,25,4,2,2,3,754,1,2.151
12,2,7,26,8,8,0,2,17,1,6.599
12,2,7,27,8,0,0,7,1089,1,-1
12,2,7,28,8,1,1,2,1055,1,3.075
12,2,8,1,2,1,1,1,919,1,1.072
12,2,8,2,6,2,0,2,753,1,3.001
12,2,8,3,8,4,0,4,523,1,11.002
12,2,8,4,6,1,1,2,530,1,2.371
12,2,8,5,8,0,0,2,112,1,-1
12,2,8,6,6,2,2,2,861,1,2.903
12,2,8,7,6,6,0,6,1072,1,2.01
12,2,8,8,4,2,2,4,96,1,1.316
12,2,8,9,6,4,0,5,200,1,0.976
12,2,8,10,8,2,0,5,327,1,2.236
12,2,8,11,6,4,4,6,449,1,2.041
12,2,8,12,4,4,4,3,762,1,1.074
12,2,8,13,6,0,0,4,669,1,-1
12,2,8,14,4,2,0,3,592,1,1.134
12,2,8,15,2,0,0,1,272,1,-1
12,2,8,16,8,1,1,8,122,1,1.273
12,2,8,17,8,8,0,7,91,2,1.059
12,2,8,18,2,2,0,1,268,1,0.955
12,2,8,19,8,2,2,5,9,1,6.859
12,2,8,20,6,6,4,6,870,1,1.34
12,2,8,21,2,2,2,1,670,1,1.363
12,2,8,22,4,4,0,2,290,1,2.946
12,2,8,23,4,1,1,4,245,1,1.205
12,2,8,24,8,4,4,4,1119,1,1.216
12,2,8,25,8,8,4,7,413,3,5.842
12,2,8,26,8,6,4,3,782,1,4.575
12,2,8,27,8,6,0,6,401,1,1.449
12,2,8,28,4,0,0,2,813,1,-1
12,3,1,1,8,6,4,1,765,1,6.375
12,3,1,2,4,2,0,4,1151,1,1.634
12,3,1,3,6,4,4,1,1160,1,4.815
12,3,1,4,8,6,0,1,1037,1,4.385
12,3,1,5,4,4,4,1,430,1,2.784
12,3,1,6,8,4,4,3,98,1,9.486
12,3,1,7,6,0,0,6,990,1,-1
12,3,1,8,8,8,4,7,187,1,4.423
12,3,1,9,4,1,1,3,552,1,0.911
12,3,1,10,6,6,0,1,1078,2,5.445
12,3,1,11,4,0,0,2,147,1,-1
12,3,1,12,8,0,0,6,28,1,-1
12,3,1,13,6,4,0,2,1118,2,7.331
12,3,1,14,2,0,0,2,487,1,-1
12,3,1,15,2,2,0,1,893,1,1.164
12,3,1,16,8,1,1,3,1102,1,2.823
12,3,1,17,4,4,0,4,222,1,1.552
12,3,1,18,2,2,2,2,355,1,1.256
12,3,1,19,6,6,4,1,921,1,2.743
12,3,1,20,2,1,1,2,171,1,1.532
12,3,1,21,6,2,2,6,26,1,1.196
12,3,1,22,8,4,0,6,190,1,1.857
12,3,1,23,6,1,1,1,130,1,1.254
12,3,1,24,8,2,2,1,174,1,3.423
12,3,1,25,8,2,0,8,14,1,1.188
12,3,1,26,4,2,2,3,196,1,1.556
12,3,1,27,8,8,0,7,1130,1,1.257
12,3,1,28,6,2,0,2,777,1,2.925
12,3,2,1,6,2,0,4,284,2,3.35
12,3,2,2,4,0,0,4,1074,3,-1
12,3,2,3,4,4,4,2,1098,1,1.487
12,3,2,4,2,2,0,2,117,1,0.957
12,3,2,5,2,0,0,1,903,1,-1
12,3,2,6,6,6,0,5,795,1,4.441
12,3,2,7,2,1,1,1,850,1,0.962
12,3,2,8,4,4,0,2,1080,1,1.95
12,3,2,9,8,4,4,7,1125,1,1.845
12,3,2,10,6,1,1,4,807,1,1.159
12,3,2,11,6,0,0,1,501,3,-1
12,3,2,12,6,4,4,3,512,1,2.774
12,3,2,13,8,6,4,7,855,2,2.142
12,3,2,14,8,4,0,4,782,1,2.721
12,3,2,15,8,2,0,2,734,1,3.496
12,3,2,16,6,6,4,4,524,1,1.438
12,3,2,17,8,2,2,4,367,1,11.171
12,3,2,18,8,0,0,4,1073,2,-1
12,3,2,19,8,8,0,3,5,1,5.607
12,3,2,20,8,8,4,8,213,1,1.766
12,3,2,21,4,2,0,1,314,1,2.2
12,3,2,22,6,4,0,4,138,1,5.469
12,3,2,23,4,1,1,1,754,1,1.764
12,3,2,24,2,2,2,1,280,1,0.87
12,3,2,25,6,2,2,2,175,1,3.083
12,3,2,26,8,6,0,5,626,1,5.016
12,3,2,27,4,2,2,4,1027,1,0.886
12,3,2,28,8,1,1,1,1136,1,1.352
12,3,3,1,6,6,0,4,241,1,2.346
12,3,3,2,8,4,0,5,2,1,1.298
12,3,3,3,8,2,2,2,902,1,2.902
12,3,3,4,8,6,0,2,641,1,4.745
12,3,3,5,4,2,2,2,576,1,4.651
12,3,3,6,8,4,4,5,533,1,1.853
12,3,3,7,4,0,0,3,272,1,-1
12,3,3,8,2,1,1,2,253,1,1.517
12,3,3,9,6,2,0,1,402,1,1.487
12,3,3,10,6,4,0,1,992,1,1.456
12,3,3,11,2,2,2,2,131,1,1.119
12,3,3,12,6,4,4,4,507,1,11.103
12,3,3,13,8,0,0,5,405,1,-1
12,3,3,14,8,8,0,8,1162,1,1.305
12,3,3,15,4,4,0,3,669,1,1.493
12,3,3,16,8,8,4,2,928,1,2.735
12,3,3,17,4,2,0,2,937,1,1.023
12,3,3,18,6,0,0,5,681,1,-1
12,3,3,19,4,4,4,4,951,1,1.49
12,3,3,20,6,1,1,5,1122,1,1.405
12,3,3,21,4,1,1,4,808,1,1.002
12,3,3,22,8,6,4,8,237,1,3.333
12,3,3,23,8,2,0,4,442,2,7.434
12,3,3,24,6,6,4,5,404,1,3.005
12,3,3,25,2,2,0,2,548,1,1.076
12,3,3,26,8,1,1,6,609,1,2.058
12,3,3,27,6,2,2,3,1117,1,7.232
12,3,3,28,2,0,0,2,249,1,-1
12,3,4,1,8,8,4,3,110,1,9.128
12,3,4,2,8,0,0,8,429,1,-1
12,3,4,3,6,6,4,3,12,1,4.529
12,3,4,4,8,4,4,2,905,1,2.873
12,3,4,5,4,0,0,1,896,1,-1
12,3,4,6,6,4,4,5,1170,1,1.296
12,3,4,7,6,0,0,2,783,1,-1
12,3,4,8,8,1,1,5,1189,1,1.521
12,3,4,9,4,4,4,3,493,1,1.391
12,3,4,10,4,1,1,2,1000,1,1.666
12,3,4,11,6,2,2,5,1031,1,1.24
12,3,4,12,4,2,2,1,484,1,1.045
12,3,4,13,8,6,4,2,730,1,5.757
12,3,4,14,2,1,1,1,1180,1,1.025
12,3,4,15,6,6,0,3,725,1,2.279
12,3,4,16,2,0,0,1,435,1,-1
12,3,4,17,8,8,0,6,97,1,2.654
12,3,4,18,8,2,0,1,125,1,1.835
12,3,4,19,6,1,1,6,218,1,1.004
12,3,4,20,2,2,2,1,889,1,0.915
12,3,4,21,8,2,2,8,963,1,2.538
12,3,4,22,8,6,0,6,338,1,1.496
12,3,4,23,4,2,0,3,352,1,1.593
12,3,4,24,6,4,0,6,441,1,2.332
12,3,4,25,8,4,0,8,86,1,1.371
12,3,4,26,4,4,0,1,1121,1,1.551
12,3,4,27,2,2,0,1,1196,1,0.938
12,3,4,28,6,2,0,3,317,1,1.176
12,3,5,1,2,2,0,2,515,1,1.202
12,3,5,2,6,6,4,6,571,1,1.995
12,3,5,3,4,4,4,4,684,1,1.643
12,3,5,4,4,2,0,1,616,1,1.018
12,3,5,5,6,0,0,3,716,1,-1
12,3,5,6,4,4,0,2,217,2,2.525
12,3,5,7,8,6,4,3,143,1,4.739
12,3,5,8,8,6,0,7,1041,1,6.355
12,3,5,9,8,4,4,1,1094,1,1.732
12,3,5,10,6,4,0,3,1050,1,2.451
12,3,5,11,4,2,2,4,534,1,2.517
12,3,5,12,6,6,0,2,1010,1,2.627
12,3,5,13,4,0,0,3,844,1,-1
12,3,5,14,4,1,1,3,1174,1,1.083
12,3,5,15,8,1,1,2,296,1,1.379
12,3,5,16,2,2,2,1,511,1,0.835
12,3,5,17,8,4,0,3,707,1,6.482
12,3,5,18,8,2,0,7,573,1,1.525
12,3,5,19,6,4,4,6,166,1,1.097
12,3,5,20,6,2,0,5,516,1,3.664
12,3,5,21,8,2,2,3,191,1,10.235
12,3,5,22,6,2,2,1,133,1,1.274
12,3,5,23,8,8,0,2,326,1,7.04
12,3,5,24,2,0,0,2,266,1,-1
12,3,5,25,8,8,4,4,343,2,18.491
12,3,5,26,2,1,1,2,383,1,0.977
12,3,5,27,6,1,1,3,450,1,1.165
12,3,5,28,8,0,0,7,952,1,-1
12,3,6,1,6,0,0,4,763,2,-1
12,3,6,2,2,2,0,1,655,1,1.001
12,3,6,3,6,1,1,2,918,1,1.633
12,3,6,4,4,4,0,1,945,1,1.756
12,3,6,5,6,4,0,5,803,1,0.901
12,3,6,6,8,8,0,5,165,2,1.44
12,3,6,7,8,4,0,2,1041,1,5.392
12,3,6,8,6,2,2,4,315,1,3.551
12,3,6,9,6,4,4,2,962,1,4.502
12,3,6,10,2,1,1,1,1072,1,1.055
12,3,6,11,8,2,2,5,934,2,0.941
12,3,6,12,6,6,0,6,1043,1,1.956
12,3,6,13,8,8,4,6,139,1,3.104
12,3,6,14,4,1,1,4,589,1,1.462
12,3,6,15,8,6,4,4,16,2,22.403
12,3,6,16,8,4,4,8,862,1,1.338
12,3,6,17,8,2,0,5,208,1,1.281
12,3,6,18,6,2,0,6,562,1,0.956
12,3,6,19,2,0,0,1,771,1,-1
12,3,6,20,4,2,2,1,691,1,1.165
12,3,6,21,4,0,0,2,176,1,-1
12,3,6,22,2,2,2,2,842,1,1.427
12,3,6,23,8,1,1,7,710,1,1.412
12,3,6,24,8,0,0,2,143,1,-1
12,3,6,25,8,6,0,8,138,1,2.547
12,3,6,26,4,2,0,2,1113,1,1.077
12,3,6,27,6,6,4,2,561,1,6.227
12,3,6,28,4,4,4,3,1044,1,1.728
12,3,7,1,2,2,0,2,1120,1,0.84
12,3,7,2,8,8,4,5,725,2,3.881
12,3,7,3,8,8,0,4,1046,1,1.262
12,3,7,4,8,2,0,6,170,1,1.699
12,3,7,5,4,1,1,2,1129,1,0.878
12,3,7,6,6,6,4,4,255,1,2.893
12,3,7,7,6,0,0,1,1188,1,-1
12,3,7,8,6,2,2,1,413,1,2.797
12,3,7,9,8,6,4,5,499,1,3.73
12,3,7,10,4,4,4,1,156,1,1.83
12,3,7,11,2,2,2,1,1114,1,1.245
12,3,7,12,2,1,1,2,621,1,1.579
12,3,7,13,4,2,2,2,928,1,1.11
12,3,7,14,8,6,0,3,94,1,9.219
12,3,7,15,8,1,1,8,60,1,1.434
12,3,7,16,2,0,0,2,306,1,-1
12,3,7,17,6,1,1,3,685,1,1.876
12,3,7,18,6,6,0,5,433,1,2.577
12,3,7,19,4,2,0,4,882,1,1.333
12,3,7,20,8,0,0,3,1111,2,-1
12,3,7,21,4,0,0,1,425,1,-1
12,3,7,22,8,2,2,6,960,1,2.019
12,3,7,23,6,4,4,1,278,1,2.962
12,3,7,24,6,4,0,3,915,1,1.716
12,3,7,25,8,4,4,4,987,2,6.527
12,3,7,26,6,2,0,3,523,2,2.059
12,3,7,27,8,4,0,7,319,1,2.209
12,3,7,28,4,4,0,3,631,1,1.991
12,3,8,1,4,4,4,2,158,1,2.169
12,3,8,2,6,2,0,6,563,1,1.297
12,3,8,3,6,0,0,2,1156,1,-1
12,3,8,4,4,1,1,1,574,1,1.092
12,3,8,5,8,6,4,6,503,2,11.79
12,3,8,6,6,1,1,5,739,1,1.034
12,3,8,7,8,2,0,3,657,1,4.258
12,3,8,8,8,4,0,1,380,1,2.436
12,3,8,9,2,1,1,1,557,1,0.962
12,3,8,10,6,6,4,2,50,1,4.908
12,3,8,11,8,1,1,4,1127,1,1.456
12,3,8,12,8,0,0,1,315,3,-1
12,3,8,13,8,2,2,7,728,1,1.602
12,3,8,14,6,2,2,2,771,1,19.993
12,3,8,15,6,4,4,2,709,1,7.468
12,3,8,16,8,6,0,4,763,2,7.506
12,3,8,17,6,6,0,6,310,1,1.916
12,3,8,18,8,8,0,1,974,1,4.083
12,3,8,19,6,4,0,4,1093,1,1.141
12,3,8,20,4,2,2,3,216,1,1.259
12,3,8,21,2,0,0,1,650,1,-1
12,3,8,22,2,2,0,1,1072,1,0.827
12,3,8,23,8,4,4,6,416,1,2.968
12,3,8,24,4,2,0,3,1103,1,0.766
12,3,8,25,8,8,4,1,813,1,4.775
12,3,8,26,4,0,0,4,1081,1,-1
12,3,8,27,2,2,2,2,963,1,1.293
12,3,8,28,4,4,0,4,176,1,0.909
13,1,1,1,4,4,0,2,429,1,1.263
13,1,1,2,6,0,0,1,1133,1,-1
13,1,1,3,6,4,4,1,706,1,3.814
13,1,1,4,2,2,0,1,235,1,1.237
13,1,1,5,2,1,1,1,654,1,1.027
13,1,1,6,6,2,0,4,48,1,3.413
13,1,1,7,6,4,0,6,537,1,2.608
13,1,1,8,8,1,1,1,781,1,2.486
13,1,1,9,6,1,1,6,1100,1,1.787
13,1,1,10,4,4,4,3,408,1,2.024
13,1,1,11,8,6,4,5,78,1,3.767
13,1,1,12,8,4,0,4,1103,2,6.176
13,1,1,13,8,6,0,4,36,2,4.666
13,1,1,14,8,0,0,6,373,1,-1
13,1,1,15,4,0,0,2,334,1,-1
13,1,1,16,6,6,4,1,827,1,10.261
13,1,1,17,8,2,2,4,269,1,7.424
13,1,1,18,4,2,0,3,1154,1,2.862
13,1,1,19,8,4,4,3,192,1,4.669
13,1,1,20,8,8,0,5,1062,1,7.632
13,1,1,21,4,2,2,3,1152,1,1.701
13,1,1,22,6,2,2,5,366,1,2.113
13,1,1,23,4,1,1,4,1130,1,2.21
13,1,1,24,2,2,2,2,835,1,1.376
13,1,1,25,2,0,0,2,913,1,-1
13,1,1,26,8,2,0,1,758,1,2.836
13,1,1,27,8,8,4,6,1182,1,3.577
13,1,1,28,6,6,0,6,496,2,1.794
13,1,2,1,6,2,2,4,177,1,2.176
13,1,2,2,8,6,4,3,975,2,4.46
13,1,2,3,6,4,0,2,39,2,4.098
13,1,2,4,4,4,4,4,641,1,3.775
13,1,2,5,8,8,4,5,850,1,5.775
13,1,2,6,8,8,0,7,605,2,3.502
13,1,2,7,2,0,0,1,697,1,-1
13,1,2,8,2,2,2,1,1064,1,1.254
13,1,2,9,6,6,4,6,167,1,2.154
13,1,2,10,6,0,0,4,86,1,-1
13,1,2,11,6,4,4,4,648,1,4.701
13,1,2,12,6,1,1,5,326,1,2.021
13,1,2,13,4,0,0,4,190,1,-1
13,1,2,14,8,1,1,6,416,1,2.477
13,1,2,15,2,2,0,2,353,1,1.02
13,1,2,16,4,2,2,2,1136,1,1.917
13,1,2,17,8,0,0,4,734,2,-1
13,1,2,18,6,2,0,1,597,1,2.433
13,1,2,19,6,6,0,4,392,1,5.579
13,1,2,20,4,1,1,2,941,1,1.646
13,1,2,21,8,4,0,3,696,1,2.615
13,1,2,22,8,4,4,5,695,1,10.155
13,1,2,23,2,1,1,2,484,1,2.161
13,1,2,24,8,2,2,5,744,2,5.075
13,1,2,25,8,2,0,3,219,1,3.329
13,1,2,26,4,4,0,1,426,1,1.728
13,1,2,27,4,2,0,1,98,1,2.146
13,1,2,28,8,6,0,1,963,1,3.445
13,1,3,1,2,1,1,2,915,1,1.65
13,1,3,2,8,2,0,6,937,1,2.805
13,1,3,3,4,4,4,2,1107,1,1.258
13,1,3,4,8,4,0,5,1047,1,2.208
13,1,3,5,2,0,0,2,197,1,-1
13,1,3,6,4,2,2,4,616,1,2.307
13,1,3,7,6,2,2,6,998,1,1.976
13,1,3,8,8,1,1,5,1129,1,4.34
13,1,3,9,6,4,0,1,1,1,2.623
13,1,3,10,6,4,4,3,515,2,5.238
13,1,3,11,2,2,0,2,681,1,1.467
13,1,3,12,8,0,0,2,96,2,-1
13,1,3,13,6,6,0,5,1091,2,4.789
13,1,3,14,4,4,0,3,239,1,2.085
13,1,3,15,4,1,1,3,91,1,1.418
13,1,3,16,6,2,0,5,802,1,2.365
13,1,3,17,8,8,0,3,1193,2,6.752
13,1,3,18,8,2,2,8,259,1,1.996
13,1,3,19,8,6,4,8,1052,1,2.263
13,1,3,20,8,8,4,3,208,2,9.587
13,1,3,21,8,4,4,7,628,1,8.444
13,1,3,22,6,1,1,4,31,1,3.496
13,1,3,23,2,2,2,1,741,1,1.211
13,1,3,24,4,0,0,1,1146,1,-1
13,1,3,25,4,2,0,2,452,1,2.29
13,1,3,26,6,0,0,5,640,1,-1
13,1,3,27,6,6,4,2,693,1,3.469
13,1,3,28,8,6,0,3,762,1,7.603
13,1,4,1,2,2,2,2,394,1,2.001
13,1,4,2,8,2,0,2,607,1,26.149
13,1,4,3,8,2,2,6,116,1,2.31
13,1,4,4,8,4,4,1,627,3,18.206
13,1,4,5,4,2,0,4,711,1,1.643
13,1,4,6,8,6,4,4,670,2,3.93
13,1,4,7,4,0,0,3,948,1,-1
13,1,4,8,4,4,4,1,511,1,13.614
13,1,4,9,8,8,0,4,1078,1,2.915
13,1,4,10,6,6,0,1,1196,1,10.989
13,1,4,11,2,1,1,1,447,1,1.779
13,1,4,12,6,6,4,4,486,1,14.936
13,1,4,13,8,1,1,8,651,1,2.942
13,1,4,14,8,4,0,8,553,1,2.234
13,1,4,15,2,0,0,1,438,1,-1
13,1,4,16,2,2,0,1,907,1,11.085
13,1,4,17,6,0,0,2,1011,1,-1
13,1,4,18,4,2,2,1,1057,1,1.836
13,1,4,19,4,1,1,1,666,1,1.796
13,1,4,20,6,2,2,2,1049,1,3.166
13,1,4,21,4,4,0,4,900,1,2.11
13,1,4,22,8,0,0,3,305,1,-1
13,1,4,23,6,2,0,2,292,2,6.855
13,1,4,24,6,1,1,2,530,1,3.447
13,1,4,25,6,4,4,5,922,1,3.061
13,1,4,26,8,8,4,2,175,1,13.28
13,1,4,27,6,4,0,5,1071,1,3.577
13,1,4,28,8,6,0,8,1161,1,1.789
13,1,5,1,6,2,2,3,107,3,5.134
13,1,5,2,8,2,0,8,992,1,6.653
13,1,5,3,4,0,0,1,570,1,-1
13,1,5,4,2,1,1,2,723,1,1.48
13,1,5,5,4,4,4,3,927,1,2.28
13,1,5,6,2,2,2,1,195,1,1.891
13,1,5,7,8,2,2,2,393,1,6.374
13,1,5,8,6,6,4,3,903,1,3.279
13,1,5,9,8,4,0,6,784,1,9.982
13,1,5,10,4,4,0,2,503,1,2.122
13,1,5,11,8,1,1,3,265,1,3.485
13,1,5,12,4,1,1,4,128,1,2.662
13,1,5,13,6,2,0,3,955,1,4.813
13,1,5,14,8,6,0,7,1033,1,3.741
13,1,5,15,8,6,4,7,313,1,2.01
13,1,5,16,8,0,0,7,690,1,-1
13,1,5,17,8,4,4,4,786,2,4.961
13,1,5,18,4,2,2,1,66,1,1.688
13,1,5,19,6,0,0,3,449,1,-1
13,1,5,20,6,1,1,3,202,1,5.129
13,1,5,21,6,4,4,2,355,1,1.902
13,1,5,22,2,2,0,1,346,1,1.181
13,1,5,23,4,2,0,3,1018,1,2.019
13,1,5,24,2,0,0,2,246,1,-1
13,1,5,25,8,8,0,6,272,2,6.354
13,1,5,26,6,6,0,2,349,1,3.916
13,1,5,27,6,4,0,4,793,1,2.858
13,1,5,28,8,8,4,7,399,1,2.17
13,1,6,1,8,4,0,7,428,1,3.485
13,1,6,2,2,2,0,2,45,1,2.578
13,1,6,3,2,2,2,2,465,1,1.06
13,1,6,4,8,0,0,1,239,2,-1
13,1,6,5,8,8,4,1,142,1,3.273
13,1,6,6,2,0,0,1,1029,1,-1
13,1,6,7,8,8,0,2,655,2,5.689
13,1,6,8,6,6,4,5,671,1,33.056
13,1,6,9,6,4,4,6,806,1,3.011
13,1,6,10,8,4,4,8,184,1,2.655
13,1,6,11,8,1,1,7,94,1,2.748
13,1,6,12,6,2,0,6,64,1,2.42
13,1,6,13,4,4,0,1,848,1,3.368
13,1,6,14,6,6,0,3,660,1,9.492
13,1,6,15,4,2,2,3,155,1,3.661
13,1,6,16,8,6,4,2,5,2,4.145
13,1,6,17,8,2,0,4,590,2,3.353
13,1,6,18,2,1,1,1,792,1,3.292
13,1,6,19,4,2,0,2,710,1,2.374
13,1,6,20,6,2,2,1,501,1,3.765
13,1,6,21,6,0,0,6,443,1,-1
13,1,6,22,6,1,1,1,1168,1,2.929
13,1,6,23,4,4,4,4,951,1,2.264
13,1,6,24,4,1,1,1,337,1,1.27
13,1,6,25,4,0,0,3,721,1,-1
13,1,6,26,8,2,2,3,952,2,7.542
13,1,6,27,6,4,0,3,361,1,2.611
13,1,6,28,8,6,0,2,468,2,2.678
13,1,7,1,6,2,0,4,630,1,1.629
13,1,7,2,6,1,1,6,809,1,2.27
13,1,7,3,2,1,1,1,10,1,0.891
13,1,7,4,8,4,0,2,325,1,4.933
13,1,7,5,8,2,0,7,752,1,2.448
13,1,7,6,8,4,4,2,196,2,5.063
13,1,7,7,8,6,4,1,513,2,3.965
13,1,7,8,8,0,0,8,873,1,-1
13,1,7,9,6,6,4,5,1034,1,1.801
13,1,7,10,6,6,0,3,74,2,3.236
13,1,7,11,8,2,2,7,537,1,3.797
13,1,7,12,4,2,0,1,94,1,1.996
13,1,7,13,6,4,4,4,931,1,3.339
13,1,7,14,8,8,4,8,806,1,3.421
13,1,7,15,4,1,1,2,1131,1,1.494
13,1,7,16,8,6,0,6,1121,2,6.265
13,1,7,17,4,2,2,2,516,1,1.054
13,1,7,18,8,8,0,1,1188,1,5.909
13,1,7,19,6,0,0,1,961,1,-1
13,1,7,20,8,1,1,2,463,1,3.297
13,1,7,21,6,2,2,2,410,1,2.085
13,1,7,22,4,4,0,3,604,1,2.195
13,1,7,23,6,4,0,6,368,1,1.934
13,1,7,24,4,4,4,1,962,1,1.94
13,1,7,25,2,2,2,1,32,1,1.573
13,1,7,26,2,0,0,2,31,1,-1
13,1,7,27,2,2,0,1,20,2,1.142
13,1,7,28,4,0,0,4,481,1,-1
13,2,1,1,6,2,0,1,686,1,1.023
13,2,1,2,8,4,0,3,155,2,3.565
13,2,1,3,4,4,4,3,290,1,1.808
13,2,1,4,4,4,0,3,696,1,0.914
13,2,1,5,4,1,1,3,656,1,0.849
13,2,1,6,6,2,2,6,652,1,2.418
13,2,1,7,4,2,0,4,60,1,1.564
13,2,1,8,6,6,4,1,722,1,1.979
13,2,1,9,6,1,1,1,996,1,2.6
13,2,1,10,8,4,4,3,47,2,7.888
13,2,1,11,6,4,0,6,769,1,1.508
13,2,1,12,2,2,0,1,487,1,1.002
13,2,1,13,6,6,0,5,131,1,2.316
13,2,1,14,8,8,4,5,484,2,6.178
13,2,1,15,8,0,0,5,368,2,-1
13,2,1,16,6,4,4,1,110,1,4.182
13,2,1,17,8,8,0,8,191,1,1.21
13,2,1,18,8,6,0,1,506,1,4.065
13,2,1,19,2,0,0,2,385,1,-1
13,2,1,20,4,0,0,3,100,1,-1
13,2,1,21,8,1,1,8,889,1,1.196
13,2,1,22,2,1,1,2,804,1,0.983
13,2,1,23,8,6,4,2,1011,1,8.99
13,2,1,24,2,2,2,1,619,1,1.029
13,2,1,25,8,2,0,6,812,1,3.241
13,2,1,26,6,0,0,3,124,2,-1
13,2,1,27,4,2,2,1,868,1,2.089
13,2,1,28,8,2,2,2,1166,2,4.593
13,2,2,1,4,1,1,4,322,1,1.894
13,2,2,2,6,2,2,1,867,1,2.55
13,2,2,3,8,0,0,2,292,2,-1
13,2,2,4,4,2,2,3,940,1,1.219
13,2,2,5,4,4,4,4,718,1,2.527
13,2,2,6,8,8,0,3,238,1,2.594
13,2,2,7,6,6,0,4,1092,1,11.206
13,2,2,8,2,1,1,1,730,1,0.885
13,2,2,9,4,4,0,1,462,1,1.12
13,2,2,10,6,1,1,3,424,1,1.138
13,2,2,11,8,4,0,6,426,1,2.098
13,2,2,12,6,0,0,2,45,3,-1
13,2,2,13,8,6,0,7,213,1,2.7
13,2,2,14,8,2,2,8,775,1,1.69
13,2,2,15,2,2,2,2,924,1,1.441
13,2,2,16,8,2,0,7,411,1,2.8
13,2,2,17,4,2,0,2,61,1,1.36
13,2,2,18,2,2,0,2,992,1,1.182
13,2,2,19,8,1,1,5,916,1,3.707
13,2,2,20,8,8,4,4,314,1,2.949
13,2,2,21,6,6,4,5,548,1,2.292
13,2,2,22,8,6,4,5,307,2,4.113
13,2,2,23,6,4,4,4,808,1,4.572
13,2,2,24,2,0,0,1,856,1,-1
13,2,2,25,6,2,0,2,386,1,1.908
13,2,2,26,4,0,0,4,698,1,-1
13,2,2,27,6,4,0,3,576,2,4.023
13,2,2,28,8,4,4,8,648,1,2.117
13,2,3,1,2,2,2,2,310,1,2.082
13,2,3,2,6,6,0,6,640,1,1.897
13,2,3,3,4,1,1,1,184,1,1.166
13,2,3,4,8,0,0,4,413,1,-1
13,2,3,5,8,6,0,4,28,1,2.851
13,2,3,6,8,2,0,8,745,1,1.406
13,2,3,7,6,1,1,6,161,1,1.19
13,2,3,8,2,0,0,1,1187,1,-1
13,2,3,9,8,6,4,7,524,1,5.411
13,2,3,10,6,0,0,1,205,3,-1
13,2,3,11,4,4,4,1,1055,1,1.707
13,2,3,12,8,8,4,7,69,1,3.182
13,2,3,13,6,6,4,4,510,1,3.45
13,2,3,14,6,2,0,3,834,1,3.21
13,2,3,15,8,4,4,2,112,2,6.744
13,2,3,16,6,2,2,2,1150,1,4.357
13,2,3,17,8,2,2,7,1004,2,3.664
13,2,3,18,4,4,0,4,1087,1,1.381
13,2,3,19,4,2,2,2,678,1,1.614
13,2,3,20,4,0,0,2,1052,1,-1
13,2,3,21,2,1,1,2,641,1,0.87
13,2,3,22,8,4,0,8,463,1,1.54
13,2,3,23,2,2,0,2,497,1,1.5
13,2,3,24,6,4,0,5,227,1,2.911
13,2,3,25,6,4,4,2,6,1,11.586
13,2,3,26,8,8,0,2,1180,2,8.563
13,2,3,27,8,1,1,1,318,1,2.854
13,2,3,28,4,2,0,3,1006,1,2.159
13,2,4,1,6,6,4,6,312,1,2.067
13,2,4,2,2,1,1,1,1193,1,0.754
13,2,4,3,8,0,0,7,144,1,-1
13,2,4,4,6,6,0,2,1162,2,8.147
13,2,4,5,4,4,4,2,533,1,2.078
13,2,4,6,6,2,0,4,440,1,1.689
13,2,4,7,4,2,2,4,485,1,1.787
13,2,4,8,8,1,1,7,549,1,1.566
13,2,4,9,8,4,4,1,681,1,6.557
13,2,4,10,6,1,1,5,839,1,1.699
13,2,4,11,6,0,0,5,544,1,-1
13,2,4,12,8,4,0,1,173,2,6.374
13,2,4,13,4,2,0,1,1100,1,1.535
13,2,4,14,8,6,0,8,222,1,1.8
13,2,4,15,4,4,0,2,1133,1,2.078
13,2,4,16,6,4,4,3,604,1,1.394
13,2,4,17,8,8,4,3,1154,2,6.952
13,2,4,18,2,0,0,2,283,1,-1
13,2,4,19,6,2,2,5,118,1,2.799
13,2,4,20,8,2,2,3,805,2,4.564
13,2,4,21,8,2,0,3,276,1,3.132
13,2,4,22,8,8,0,4,822,2,8.698
13,2,4,23,4,0,0,1,855,1,-1
13,2,4,24,2,2,2,1,57,1,1.143
13,2,4,25,2,2,0,1,1124,1,3.491
13,2,4,26,8,6,4,4,268,2,3.629
13,2,4,27,4,1,1,2,263,1,1.876
13,2,4,28,6,4,0,2,1069,1,1.594
13,2,5,1,8,2,0,1,602,2,3.251
13,2,5,2,2,0,0,1,473,1,-1
13,2,5,3,4,1,1,4,96,1,1.877
13,2,5,4,8,0,0,1,45,3,-1
13,2,5,5,8,6,4,1,957,1,6.149
13,2,5,6,4,0,0,2,559,1,-1
13,2,5,7,6,2,0,6,799,1,2.848
13,2,5,8,6,1,1,4,813,1,4.659
13,2,5,9,8,8,0,5,321,1,5.298
13,2,5,10,4,2,2,4,77,1,1.332
13,2,5,11,8,1,1,2,168,1,2.43
13,2,5,12,6,6,4,2,999,2,6.26
13,2,5,13,6,4,4,6,258,1,1.242
13,2,5,14,6,2,2,3,494,2,3.669
13,2,5,15,8,8,4,2,556,1,6.872
13,2,5,16,6,6,0,3,4,2,1.433
13,2,5,17,8,4,4,5,83,2,9.278
13,2,5,18,4,2,0,1,68,1,1.738
13,2,5,19,8,2,2,6,486,1,2.054
13,2,5,20,2,2,2,1,433,1,1.722
13,2,5,21,6,4,0,4,1063,1,2.143
13,2,5,22,8,6,0,6,1102,1,2.723
13,2,5,23,2,2,0,2,26,1,0.968
13,2,5,24,4,4,0,4,1115,1,1.69
13,2,5,25,6,0,0,4,381,1,-1
13,2,5,26,8,4,0,5,707,2,4.591
13,2,5,27,4,4,4,4,635,1,1.872
13,2,5,28,2,1,1,1,937,1,1.003
13,2,6,1,8,0,0,6,837,1,-1
13,2,6,2,4,1,1,3,658,1,1.874
13,2,6,3,2,0,0,2,1003,1,-1
13,2,6,4,4,4,0,3,915,1,2.208
13,2,6,5,8,8,4,8,362,1,3.251
13,2,6,6,4,4,4,2,520,1,2.037
13,2,6,7,4,0,0,1,993,1,-1
13,2,6,8,2,2,2,2,33,1,1.193
13,2,6,9,6,2,0,5,230,1,1.336
13,2,6,10,6,0,0,6,1009,1,-1
13,2,6,11,8,2,0,4,1093,1,4.124
13,2,6,12,6,4,4,5,568,1,3.203
13,2,6,13,2,2,0,1,998,1,0.866
13,2,6,14,6,4,0,1,150,1,0.966
13,2,6,15,8,4,4,6,944,1,3.255
13,2,6,16,8,1,1,6,380,1,2.303
13,2,6,17,6,1,1,2,932,1,1.847
13,2,6,18,6,6,0,1,636,2,6.073
13,2,6,19,4,2,0,4,97,1,1.706
13,2,6,20,6,2,2,4,878,1,5.569
13,2,6,21,8,6,0,3,217,1,6.645
13,2,6,22,8,4,0,2,725,1,3.926
13,2,6,23,8,8,0,1,984,1,5.2
13,2,6,24,2,1,1,2,802,1,1.386
13,2,6,25,4,2,2,3,982,1,1.328
13,2,6,26,8,2,2,4,967,2,3.189
13,2,6,27,8,6,4,8,45,1,2.532
13,2,6,28,6,6,4,3,865,2,9.474
13,2,7,1,6,0,0,4,924,2,-1
13,2,7,2,6,4,0,6,356,1,2.515
13,2,7,3,8,2,0,5,831,1,5.337
13,2,7,4,4,1,1,1,942,1,1.621
13,2,7,5,8,1,1,3,77,1,3.115
13,2,7,6,4,0,0,3,1047,1,-1
13,2,7,7,6,2,0,2,161,2,4.656
13,2,7,8,4,4,4,3,949,1,1.405
13,2,7,9,6,6,0,1,556,2,2.364
13,2,7,10,2,0,0,2,347,1,-1
13,2,7,11,6,6,4,2,1038,1,2.731
13,2,7,12,4,4,0,2,216,1,1.528
13,2,7,13,8,4,4,7,576,1,2.612
13,2,7,14,2,1,1,1,396,1,0.827
13,2,7,15,8,2,2,5,535,2,3.006
13,2,7,16,6,1,1,5,484,1,3.11
13,2,7,17,8,8,0,6,1170,1,1.85
13,2,7,18,2,2,0,1,431,1,1.323
13,2,7,19,8,6,0,5,451,2,1.67
13,2,7,20,4,2,0,2,930,1,0.921
13,2,7,21,8,8,4,6,760,1,2.268
13,2,7,22,8,4,0,7,395,1,3.124
13,2,7,23,2,2,2,1,54,1,1.546
13,2,7,24,6,2,2,3,743,2,3.081
13,2,7,25,8,0,0,8,1112,1,-1
13,2,7,26,6,4,4,1,965,1,3.308
13,2,7,27,8,6,4,3,979,2,3.514
13,2,7,28,4,2,2,2,675,1,1.468
13,2,8,1,8,1,1,4,64,3,2.787
13,2,8,2,6,2,2,1,687,1,2.652
13,2,8,3,8,8,4,1,1173,1,2.794
13,2,8,4,2,1,1,2,645,1,1.204
13,2,8,5,2,2,2,2,459,1,0.97
13,2,8,6,6,6,4,6,114,1,1.744
13,2,8,7,6,4,4,2,169,2,4.531
13,2,8,8,6,0,0,2,588,1,-1
13,2,8,9,4,2,2,1,367,1,1.274
13,2,8,10,8,8,0,7,826,1,1.766
13,2,8,11,8,0,0,3,957,2,-1
13,2,8,12,8,2,0,2,563,2,2.581
13,2,8,13,6,4,0,5,822,1,1.835
13,2,8,14,4,4,4,1,18,1,1.762
13,2,8,15,8,2,2,1,667,1,2.21
13,2,8,16,2,2,0,2,585,1,0.77
13,2,8,17,4,4,0,1,462,1,0.903
13,2,8,18,8,6,0,2,138,2,3.643
13,2,8,19,6,1,1,2,773,1,1.955
13,2,8,20,8,4,4,4,41,2,6.112
13,2,8,21,4,1,1,2,917,1,0.991
13,2,8,22,8,4,0,4,423,2,1.947
13,2,8,23,4,2,0,3,1120,1,1.776
13,2,8,24,2,0,0,1,810,1,-1
13,2,8,25,8,6,4,6,635,2,2.858
13,2,8,26,6,2,0,3,1181,2,2.182
13,2,8,27,6,6,0,4,611,1,1.709
13,2,8,28,4,0,0,4,180,1,-1
13,3,1,1,2,2,2,1,433,1,1.71
13,3,1,2,4,0,0,2,607,1,-1
13,3,1,3,8,1,1,1,1021,1,2.287
13,3,1,4,8,4,4,5,566,1,1.486
13,3,1,5,8,6,4,6,711,1,2.312
13,3,1,6,6,1,1,1,1189,1,2.068
13,3,1,7,8,0,0,5,553,1,-1
13,3,1,8,6,6,4,3,26,2,5.268
13,3,1,9,2,0,0,2,353,1,-1
13,3,1,10,8,4,0,4,878,2,6.93
13,3,1,11,4,1,1,1,1184,1,1.968
13,3,1,12,4,2,0,3,703,1,1.86
13,3,1,13,8,2,2,3,1165,1,6.724
13,3,1,14,4,4,0,2,439,1,1.62
13,3,1,15,8,2,0,6,144,1,1.897
13,3,1,16,2,1,1,1,640,1,1.379
13,3,1,17,6,6,0,4,591,1,1.51
13,3,1,18,8,6,0,1,104,2,9.224
13,3,1,19,6,2,0,4,82,1,1.997
13,3,1,20,4,4,4,1,743,1,1.3
13,3,1,21,6,4,0,6,527,1,1.52
13,3,1,22,6,4,4,2,197,2,4.654
13,3,1,23,6,2,2,2,1009,1,3.354
13,3,1,24,2,2,0,2,328,1,0.906
13,3,1,25,8,8,4,3,911,2,9.792
13,3,1,26,8,8,0,5,212,1,15.205
13,3,1,27,4,2,2,4,941,1,1.16
13,3,1,28,6,0,0,4,31,1,-1
13,3,2,1,6,2,0,5,951,1,2.23
13,3,2,2,6,2,2,6,933,1,2.269
13,3,2,3,8,6,0,4,287,1,3.394
13,3,2,4,8,2,2,7,1178,1,2.665
13,3,2,5,8,2,0,8,773,1,2.708
13,3,2,6,8,8,4,1,670,2,6.625
13,3,2,7,8,4,4,3,1047,2,3.105
13,3,2,8,6,1,1,2,692,1,2.522
13,3,2,9,8,6,4,7,463,1,4.844
13,3,2,10,2,1,1,2,522,1,0.882
13,3,2,11,8,0,0,8,680,1,-1
13,3,2,12,6,6,4,1,296,1,11.275
13,3,2,13,4,4,4,2,23,1,0.971
13,3,2,14,6,4,4,4,890,1,1.944
13,3,2,15,2,0,0,1,1172,1,-1
13,3,2,16,8,1,1,6,841,1,2.191
13,3,2,17,4,4,0,3,257,1,1.561
13,3,2,18,6,0,0,6,578,1,-1
13,3,2,19,4,2,0,4,736,1,1.682
13,3,2,20,6,4,0,3,443,2,2.176
13,3,2,21,8,8,0,3,731,2,5.725
13,3,2,22,8,4,0,1,547,2,5.829
13,3,2,23,4,2,2,2,991,1,1.352
13,3,2,24,4,1,1,4,979,1,1.658
13,3,2,25,2,2,2,2,982,1,1.205
13,3,2,26,4,0,0,3,808,1,-1
13,3,2,27,2,2,0,1,410,1,0.838
13,3,2,28,6,6,0,1,698,1,2.122
13,3,3,1,4,4,4,4,681,1,3.616
13,3,3,2,2,2,2,2,1060,1,2.002
13,3,3,3,8,8,4,5,240,1,1.708
13,3,3,4,2,2,0,1,1138,1,0.744
13,3,3,5,6,2,2,3,930,1,1.054
13,3,3,6,8,1,1,3,95,1,3.151
13,3,3,7,6,6,4,2,593,1,3.272
13,3,3,8,4,2,2,1,1149,1,1.489
13,3,3,9,8,4,4,8,311,1,2.475
13,3,3,10,8,6,4,8,1198,1,2.263
13,3,3,11,2,0,0,1,742,1,-1
13,3,3,12,6,6,0,6,423,1,4.326
13,3,3,13,6,4,4,5,872,1,1.764
13,3,3,14,4,0,0,4,5,1,-1
13,3,3,15,8,4,0,8,338,2,2.859
13,3,3,16,8,8,0,8,696,1,1.731
13,3,3,17,8,2,2,1,540,1,1.994
13,3,3,18,6,4,0,4,367,1,1.03
13,3,3,19,6,2,0,3,226,1,1.245
13,3,3,20,4,1,1,3,793,1,2.409
13,3,3,21,8,0,0,3,153,2,-1
13,3,3,22,2,1,1,1,1040,1,1.259
13,3,3,23,8,2,0,5,1115,1,1.702
13,3,3,24,6,0,0,5,1013,1,-1
13,3,3,25,4,2,0,1,98,1,1.244
13,3,3,26,4,4,0,4,398,1,1.339
13,3,3,27,6,1,1,5,946,1,1.428
13,3,3,28,8,6,0,2,634,2,9.36
13,3,4,1,4,1,1,2,971,1,0.91
13,3,4,2,4,0,0,1,783,1,-1
13,3,4,3,6,0,0,3,936,1,-1
13,3,4,4,8,4,4,2,554,1,7.153
13,3,4,5,2,2,0,2,1070,1,1.039
13,3,4,6,4,4,0,1,142,1,1.045
13,3,4,7,4,2,2,3,300,1,1.237
13,3,4,8,8,2,2,8,669,1,1.87
13,3,4,9,6,2,0,1,196,1,1.508
13,3,4,10,8,8,0,6,457,2,1.779
13,3,4,11,6,4,0,1,136,1,1.702
13,3,4,12,6,6,0,3,802,1,1.923
13,3,4,13,8,2,0,4,131,1,2.229
13,3,4,14,6,1,1,6,317,1,1.499
13,3,4,15,4,4,4,3,126,2,1.499
13,3,4,16,6,4,4,3,387,1,1.571
13,3,4,17,8,6,4,5,1022,1,1.796
13,3,4,18,4,2,0,2,560,1,1.001
13,3,4,19,6,2,2,1,667,1,0.944
13,3,4,20,8,6,0,5,1144,1,1.189
13,3,4,21,6,6,4,4,254,1,1.882
13,3,4,22,8,8,4,7,749,1,2.199
13,3,4,23,8,1,1,4,73,1,1.202
13,3,4,24,2,1,1,2,46,1,0.838
13,3,4,25,8,4,0,3,109,2,4.121
13,3,4,26,8,0,0,7,446,1,-1
13,3,4,27,2,2,2,1,815,1,1.169
13,3,4,28,2,0,0,2,259,1,-1
13,3,5,1,2,0,0,1,199,1,-1
13,3,5,2,2,2,2,2,577,1,1.202
13,3,5,3,2,1,1,1,600,1,0.792
13,3,5,4,8,2,2,5,977,1,0.933
13,3,5,5,6,2,0,2,548,1,8.934
13,3,5,6,4,2,0,3,366,1,13.559
13,3,5,7,6,6,0,5,372,1,2.567
13,3,5,8,8,8,4,4,437,2,9.994
13,3,5,9,4,1,1,3,239,1,1.156
13,3,5,10,8,8,0,1,505,1,2.291
13,3,5,11,6,4,0,2,712,1,8.825
13,3,5,12,6,6,4,5,424,1,3.401
13,3,5,13,6,2,2,5,278,1,1.444
13,3,5,14,8,0,0,1,120,1,-1
13,3,5,15,8,4,0,2,1135,1,2.728
13,3,5,16,4,2,2,2,1113,1,1.118
13,3,5,17,6,0,0,2,436,2,-1
13,3,5,18,4,4,0,3,931,1,1.139
13,3,5,19,4,0,0,2,124,1,-1
13,3,5,20,8,6,4,3,896,1,5.161
13,3,5,21,4,4,4,3,207,1,2.268
13,3,5,22,2,2,0,1,396,1,0.959
13,3,5,23,6,1,1,3,908,1,1.356
13,3,5,24,8,2,0,1,47,1,1.432
13,3,5,25,8,1,1,7,582,1,1.665
13,3,5,26,8,6,0,3,68,2,6.403
13,3,5,27,8,4,4,6,960,1,1.882
13,3,5,28,6,4,4,6,751,1,3.998
13,3,6,1,2,1,1,2,59,1,1.355
13,3,6,2,4,4,4,1,118,1,1.122
13,3,6,3,8,6,4,2,905,1,4.542
13,3,6,4,2,0,0,2,250,1,-1
13,3,6,5,8,4,0,5,81,1,1.154
13,3,6,6,8,8,4,6,1191,1,2.262
13,3,6,7,6,4,4,1,961,1,3.76
13,3,6,8,4,0,0,1,17,1,-1
13,3,6,9,6,6,0,2,631,1,1.183
13,3,6,10,8,4,4,4,668,1,17.494
13,3,6,11,8,0,0,2,658,2,-1
13,3,6,12,4,2,0,1,269,1,1.391
13,3,6,13,4,4,0,4,701,1,1.563
13,3,6,14,2,2,0,2,490,1,1.085
13,3,6,15,4,2,2,3,635,1,1.455
13,3,6,16,6,0,0,1,149,1,-1
13,3,6,17,4,1,1,4,1066,1,1.989
13,3,6,18,8,2,2,4,463,1,4.805
13,3,6,19,8,1,1,8,592,1,1.771
13,3,6,20,2,2,2,1,44,1,0.867
13,3,6,21,6,4,0,5,496,1,4.336
13,3,6,22,8,6,0,7,352,1,1.804
13,3,6,23,6,2,0,6,1193,1,1.883
13,3,6,24,6,1,1,4,391,1,2.07
13,3,6,25,6,2,2,4,644,1,1.785
13,3,6,26,6,6,4,6,210,1,1.862
13,3,6,27,8,2,0,3,1043,1,3.933
13,3,6,28,8,8,0,7,544,1,2.391
13,3,7,1,8,2,0,2,858,1,4.953
13,3,7,2,2,2,0,2,368,1,0.975
13,3,7,3,6,2,2,3,561,1,10.998
13,3,7,4,6,6,0,5,689,1,1.992
13,3,7,5,2,0,0,1,7,1,-1
13,3,7,6,4,1,1,2,763,1,1.295
13,3,7,7,6,6,4,5,1103,1,1.78
13,3,7,8,8,6,4,4,399,1,4.721
13,3,7,9,8,0,0,4,1008,1,-1
13,3,7,10,8,2,2,6,609,1,1.315
13,3,7,11,6,2,0,2,188,1,2.124
13,3,7,12,8,4,4,1,117,1,2.538
13,3,7,13,4,4,0,2,203,1,0.982
13,3,7,14,8,8,4,2,766,1,11.529
13,3,7,15,6,0,0,2,819,2,-1
13,3,7,16,8,8,0,2,682,2,4.736
13,3,7,17,2,2,2,2,211,1,1.402
13,3,7,18,8,6,0,6,172,1,1.532
13,3,7,19,4,4,4,2,365,1,1.359
13,3,7,20,4,2,2,1,476,1,1.023
13,3,7,21,4,0,0,4,1039,1,-1
13,3,7,22,2,1,1,2,860,1,0.852
13,3,7,23,4,2,0,2,54,1,0.832
13,3,7,24,8,4,0,7,826,1,2.027
13,3,7,25,6,4,4,6,128,1,1.938
13,3,7,26,8,1,1,2,376,1,3.986
13,3,7,27,6,4,0,6,360,1,2.449
13,3,7,28,6,1,1,5,345,1,1.3
13,3,8,1,2,1,1,1,1192,1,2.775
13,3,8,2,2,0,0,2,340,1,-1
13,3,8,3,8,2,0,7,354,1,1.675
13,3,8,4,6,2,2,6,314,1,2.022
13,3,8,5,4,0,0,3,591,1,-1
13,3,8,6,6,0,0,3,183,2,-1
13,3,8,7,8,4,0,6,926,1,1.43
13,3,8,8,6,4,0,2,276,1,2.587
13,3,8,9,4,2,0,4,713,1,1.272
13,3,8,10,6,6,0,3,109,1,1.531
13,3,8,11,6,4,4,5,596,1,1.622
13,3,8,12,8,6,4,1,394,1,2.262
13,3,8,13,6,6,4,6,243,1,2.207
13,3,8,14,8,6,0,8,1027,1,2.564
13,3,8,15,8,0,0,6,14,1,-1
13,3,8,16,2,2,2,1,944,1,0.86
13,3,8,17,6,1,1,6,890,1,1.497
13,3,8,18,6,2,0,1,261,1,1.177
13,3,8,19,8,2,2,2,604,1,2.561
13,3,8,20,4,4,0,1,984,1,0.988
13,3,8,21,2,2,0,1,643,1,1.873
13,3,8,22,4,1,1,1,341,1,0.857
13,3,8,23,8,8,4,8,500,1,1.641
13,3,8,24,8,1,1,5,639,1,1.022
13,3,8,25,4,2,2,4,195,1,2.142
13,3,8,26,8,8,0,4,642,1,8.89
13,3,8,27,4,4,4,4,322,1,2.067
13,3,8,28,8,4,4,7,332,1,2.587
14,1,1,1,2,1,1,1,567,1,1.32
14,1,1,2,4,2,0,4,474,1,1.623
14,1,1,3,4,4,0,2,334,1,4.58
14,1,1,4,6,4,0,6,457,1,1.353
14,1,1,5,6,0,0,2,575,1,-1
14,1,1,6,6,1,1,6,1057,1,1.824
14,1,1,7,8,4,0,1,453,1,3.352
14,1,1,8,4,0,0,4,506,2,-1
14,1,1,9,8,4,4,5,1109,2,8.058
14,1,1,10,6,6,4,4,521,1,6.619
14,1,1,11,8,6,4,2,62,2,4.821
14,1,1,12,8,6,0,8,376,1,2.056
14,1,1,13,4,1,1,2,228,1,1.535
14,1,1,14,6,6,0,3,617,1,4.503
14,1,1,15,8,8,4,8,269,1,2.087
14,1,1,16,8,1,1,1,622,1,1.786
14,1,1,17,2,2,2,2,997,1,1.679
14,1,1,18,6,4,4,2,845,2,6.619
14,1,1,19,8,2,0,5,1177,2,3.358
14,1,1,20,8,8,0,4,456,2,10.15
14,1,1,21,8,2,2,1,353,2,4.383
14,1,1,22,6,2,0,5,924,1,2.741
14,1,1,23,2,0,0,2,657,1,-1
14,1,1,24,8,0,0,1,627,1,-1
14,1,1,25,4,4,4,4,1020,1,2.038
14,1,1,26,6,2,2,2,605,1,4.787
14,1,1,27,4,2,2,2,891,2,3.65
14,1,1,28,2,2,0,1,890,1,0.903
14,1,2,1,6,2,2,5,1119,2,2.525
14,1,2,2,2,2,2,1,428,1,1.418
14,1,2,3,8,0,0,7,971,1,-1
14,1,2,4,8,2,0,3,662,2,4.203
14,1,2,5,6,0,0,3,502,1,-1
14,1,2,6,8,1,1,8,202,1,1.93
14,1,2,7,6,2,0,4,1152,2,2.153
14,1,2,8,8,2,2,8,175,1,1.584
14,1,2,9,8,4,0,2,471,2,3.849
14,1,2,10,8,8,4,7,537,1,6.157
14,1,2,11,4,0,0,2,1176,1,-1
14,1,2,12,6,6,4,2,479,1,6.631
14,1,2,13,6,6,0,6,454,1,1.898
14,1,2,14,2,1,1,2,178,1,1.206
14,1,2,15,6,4,4,4,787,2,7.791
14,1,2,16,8,6,4,1,293,1,9.397
14,1,2,17,4,4,4,2,476,1,1.888
14,1,2,18,8,8,0,3,863,2,3.915
14,1,2,19,8,4,4,8,795,1,2.076
14,1,2,20,2,2,0,2,539,1,1.552
14,1,2,21,4,2,0,3,708,2,1.664
14,1,2,22,2,0,0,1,316,1,-1
14,1,2,23,8,6,0,4,900,1,10.784
14,1,2,24,6,4,0,4,885,1,1.12
14,1,2,25,4,2,2,4,926,1,3.923
14,1,2,26,4,4,0,3,1055,1,1.813
14,1,2,27,4,1,1,1,1117,1,2.555
14,1,2,28,6,1,1,5,748,1,2.389
14,1,3,1,8,6,0,5,168,1,5.011
14,1,3,2,4,4,4,3,108,1,1.991
14,1,3,3,4,2,2,3,579,1,2.05
14,1,3,4,2,0,0,2,1148,1,-1
14,1,3,5,2,1,1,1,459,1,0.819
14,1,3,6,8,1,1,6,173,1,2.826
14,1,3,7,4,4,0,1,635,1,1.17
14,1,3,8,6,2,2,4,1167,2,2.071
14,1,3,9,2,2,0,1,879,1,1.634
14,1,3,10,6,1,1,1,730,1,1.673
14,1,3,11,8,2,0,4,963,1,3.25
14,1,3,12,8,4,0,5,1079,2,6.207
14,1,3,13,6,4,0,5,645,1,1.33
14,1,3,14,6,0,0,5,649,1,-1
14,1,3,15,8,2,2,4,85,1,2.396
14,1,3,16,6,2,0,2,632,2,3.691
14,1,3,17,2,2,2,1,833,1,1.307
14,1,3,18,4,0,0,3,1023,1,-1
14,1,3,19,8,8,4,3,839,2,15.419
14,1,3,20,6,6,0,4,630,1,1.101
14,1,3,21,8,4,4,3,672,1,8.322
14,1,3,22,6,6,4,3,182,2,8.373
14,1,3,23,4,1,1,3,98,1,2.457
14,1,3,24,8,6,4,5,523,2,12.41
14,1,3,25,4,2,0,2,469,1,0.931
14,1,3,26,6,4,4,6,965,1,1.799
14,1,3,27,8,8,0,1,938,1,12.203
14,1,3,28,8,0,0,8,437,1,-1
14,1,4,1,8,0,0,5,241,2,-1
14,1,4,2,8,6,4,3,707,2,8.374
14,1,4,3,8,1,1,4,699,1,1.6
14,1,4,4,4,0,0,1,183,1,-1
14,1,4,5,8,4,4,4,247,2,3.163
14,1,4,6,6,6,4,6,1,1,2.226
14,1,4,7,4,2,2,1,542,1,1.674
14,1,4,8,2,2,0,2,1078,1,1.774
14,1,4,9,8,2,0,1,563,1,4.643
14,1,4,10,6,0,0,1,646,2,-1
14,1,4,11,6,6,0,5,1114,2,3.692
14,1,4,12,2,0,0,1,744,1,-1
14,1,4,13,2,2,2,2,408,1,1.277
14,1,4,14,6,4,4,5,1019,1,2.236
14,1,4,15,4,4,0,4,827,1,1.023
14,1,4,16,4,1,1,4,927,1,1.852
14,1,4,17,6,1,1,3,638,1,2.353
14,1,4,18,4,2,0,1,400,1,1.063
14,1,4,19,8,8,0,5,669,2,3.595
14,1,4,20,6,2,0,1,39,1,3.959
14,1,4,21,8,8,4,4,352,2,14.589
14,1,4,22,8,2,2,7,466,1,1.817
14,1,4,23,6,4,0,1,24,1,1.537
14,1,4,24,8,6,0,3,1197,2,9.763
14,1,4,25,8,4,0,6,731,1,1.483
14,1,4,26,2,1,1,2,1129,1,1.42
14,1,4,27,4,4,4,1,472,1,1.543
14,1,4,28,6,2,2,6,800,1,2.329
14,1,5,1,8,1,1,3,612,1,2.564
14,1,5,2,4,2,0,3,1124,1,1.805
14,1,5,3,2,1,1,2,903,1,4.189
14,1,5,4,8,8,0,7,319,1,2.029
14,1,5,5,2,0,0,1,159,1,-1
14,1,5,6,8,4,4,1,101,1,5.646
14,1,5,7,6,2,0,6,761,1,1.201
14,1,5,8,8,0,0,4,796,2,-1
14,1,5,9,4,4,0,4,256,1,2.651
14,1,5,10,6,6,4,5,91,1,3.035
14,1,5,11,2,2,2,1,191,1,1.208
14,1,5,12,6,6,0,1,1136,1,5.407
14,1,5,13,2,2,0,2,783,1,0.778
14,1,5,14,6,2,2,1,726,2,6.286
14,1,5,15,8,4,0,7,372,1,1.702
14,1,5,16,4,1,1,3,621,1,1.951
14,1,5,17,6,0,0,4,1100,1,-1
14,1,5,18,8,6,0,2,562,1,3.648
14,1,5,19,6,1,1,4,513,1,1.537
14,1,5,20,8,6,4,4,75,1,12.509
14,1,5,21,4,0,0,4,800,3,-1
14,1,5,22,8,8,4,2,193,1,4.863
14,1,5,23,6,4,0,2,1155,1,20.705
14,1,5,24,4,2,2,1,237,1,1.598
14,1,5,25,4,4,4,4,767,1,2.036
14,1,5,26,6,4,4,1,131,2,8.189
14,1,5,27,8,2,2,5,389,2,7.315
14,1,5,28,8,2,0,7,693,1,1.498
14,1,6,1,8,0,0,6,278,2,-1
14,1,6,2,4,2,0,4,892,1,2.283
14,1,6,3,8,4,4,6,203,1,2.974
14,1,6,4,4,2,2,3,438,1,2.15
14,1,6,5,6,2,0,3,684,1,3.578
14,1,6,6,8,8,4,1,186,1,3.779
14,1,6,7,4,0,0,3,595,1,-1
14,1,6,8,6,4,4,3,610,2,3.44
14,1,6,9,2,0,0,2,60,1,-1
14,1,6,10,6,0,0,6,333,1,-1
14,1,6,11,4,4,4,1,822,1,1.598
14,1,6,12,8,6,4,7,562,1,5.545
14,1,6,13,6,4,0,3,249,1,5.675
14,1,6,14,4,4,0,1,820,1,1.313
14,1,6,15,8,6,0,7,465,1,1.239
14,1,6,16,2,2,0,1,447,1,1.229
14,1,6,17,6,1,1,2,181,1,1.947
14,1,6,18,6,6,0,2,79,2,3.072
14,1,6,19,8,2,2,2,15,1,3.844
14,1,6,20,2,2,2,2,246,1,2.097
14,1,6,21,4,1,1,1,345,1,1.999
14,1,6,22,8,1,1,2,781,1,2.508
14,1,6,23,8,2,0,6,445,1,2.025
14,1,6,24,8,8,0,8,863,1,1.439
14,1,6,25,6,6,4,1,279,2,7.828
14,1,6,26,2,1,1,1,1056,1,1.001
14,1,6,27,6,2,2,3,188,1,5.684
14,1,6,28,8,4,0,8,1060,1,2.02
14,1,7,1,8,1,1,5,925,1,3.003
14,1,7,2,6,4,4,6,877,1,2.668
14,1,7,3,8,4,4,7,1031,1,1.345
14,1,7,4,2,0,0,1,170,1,-1
14,1,7,5,8,8,4,6,581,2,2.405
14,1,7,6,4,0,0,1,200,1,-1
14,1,7,7,6,6,0,2,130,2,3.627
14,1,7,8,2,2,2,1,748,1,2.416
14,1,7,9,4,4,0,3,442,1,1.612
14,1,7,10,4,2,0,2,1188,1,1.648
14,1,7,11,6,6,4,4,30,1,1.753
14,1,7,12,8,4,0,3,999,1,5.257
14,1,7,13,4,1,1,2,216,1,1.619
14,1,7,14,6,0,0,6,761,1,-1
14,1,7,15,8,6,4,6,421,1,1.929
14,1,7,16,6,2,2,2,474,1,10.002
14,1,7,17,6,2,0,5,1061,1,1.564
14,1,7,18,8,2,0,2,656,1,3.761
14,1,7,19,4,2,2,2,1049,1,0.87
14,1,7,20,8,6,0,6,303,2,9.64
14,1,7,21,8,0,0,3,85,2,-1
14,1,7,22,8,2,2,3,850,2,2.915
14,1,7,23,8,8,0,2,678,1,8.104
14,1,7,24,2,2,0,1,767,1,1.769
14,1,7,25,6,1,1,3,473,1,2.017
14,1,7,26,2,1,1,1,1057,1,1.534
14,1,7,27,4,4,4,2,446,1,2.026
14,1,7,28,6,4,0,3,459,2,5.498
14,2,1,1,4,2,0,4,724,1,1.431
14,2,1,2,2,2,0,2,784,1,1.083
14,2,1,3,4,0,0,2,919,1,-1
14,2,1,4,6,6,0,1,535,2,10.435
14,2,1,5,8,6,0,4,9,2,11.725
14,2,1,6,8,4,0,3,772,1,7.164
14,2,1,7,8,4,4,3,182,1,10.123
14,2,1,8,6,2,0,3,1167,1,8.706
14,2,1,9,6,2,2,5,617,1,6.663
14,2,1,10,8,6,4,2,336,1,7.075
14,2,1,11,2,1,1,1,592,1,1.24
14,2,1,12,6,1,1,6,1117,1,2.743
14,2,1,13,8,2,0,8,625,1,1.449
14,2,1,14,6,6,4,6,855,1,1.544
14,2,1,15,8,8,4,4,302,2,24.276
14,2,1,16,6,0,0,5,1006,1,-1
14,2,1,17,8,8,0,2,721,1,2.716
14,2,1,18,4,2,2,4,552,1,1.198
14,2,1,19,4,1,1,4,866,1,1.753
14,2,1,20,8,0,0,3,536,1,-1
14,2,1,21,6,4,0,3,1184,1,6.301
14,2,1,22,2,0,0,1,191,1,-1
14,2,1,23,8,1,1,1,598,1,2.118
14,2,1,24,2,2,2,2,559,1,1.574
14,2,1,25,8,2,2,2,731,1,3.468
14,2,1,26,4,4,0,2,171,1,1.819
14,2,1,27,4,4,4,4,205,1,1.394
14,2,1,28,6,4,4,4,1035,1,2.361
14,2,2,1,6,6,0,2,1081,2,16.97
14,2,2,2,4,1,1,1,4,1,1.392
14,2,2,3,8,4,4,7,384,1,2.503
14,2,2,4,4,2,2,1,248,1,1.417
14,2,2,5,6,2,0,4,35,1,10.69
14,2,2,6,6,6,4,2,493,2,4.035
14,2,2,7,8,0,0,7,1002,1,-1
14,2,2,8,4,4,0,4,1142,1,2.265
14,2,2,9,4,2,0,2,1101,1,1.361
14,2,2,10,6,2,2,1,376,1,9.928
14,2,2,11,8,8,4,5,190,1,3.355
14,2,2,12,8,6,4,7,504,1,1.478
14,2,2,13,8,6,0,3,324,1,5.471
14,2,2,14,4,0,0,1,1140,1,-1
14,2,2,15,8,4,0,5,950,1,3.804
14,2,2,16,2,0,0,2,337,1,-1
14,2,2,17,8,2,2,7,1080,1,2.735
14,2,2,18,6,0,0,3,1149,1,-1
14,2,2,19,8,8,0,7,360,1,2.854
14,2,2,20,4,4,4,2,1174,1,3.695
14,2,2,21,2,2,2,1,879,1,1.955
14,2,2,22,6,4,0,4,143,1,2.351
14,2,2,23,2,2,0,1,347,1,1.685
14,2,2,24,6,1,1,3,663,1,1.841
14,2,2,25,8,2,0,3,148,2,7.747
14,2,2,26,8,1,1,8,576,1,1.878
14,2,2,27,6,4,4,5,64,1,1.84
14,2,2,28,2,1,1,2,1192,1,1.152
14,2,3,1,4,2,2,3,294,1,1.973
14,2,3,2,2,2,0,2,799,1,1.21
14,2,3,3,8,8,4,2,785,1,12.695
14,2,3,4,2,0,0,1,958,1,-1
14,2,3,5,6,1,1,5,218,1,2.031
14,2,3,6,4,2,0,1,977,1,7.277
14,2,3,7,4,1,1,2,570,1,2.068
14,2,3,8,8,8,0,6,414,2,9.151
14,2,3,9,8,6,0,8,426,1,2.193
14,2,3,10,6,2,2,2,7,1,5.922
14,2,3,11,8,4,0,1,180,2,19.018
14,2,3,12,8,4,4,5,72,2,5.361
14,2,3,13,8,2,2,3,156,1,9.151
14,2,3,14,2,1,1,2,167,1,1.007
14,2,3,15,4,4,4,3,865,1,2.192
14,2,3,16,8,2,0,4,421,1,2.444
14,2,3,17,6,6,0,4,128,2,7.075
14,2,3,18,6,0,0,2,768,3,-1
14,2,3,19,8,1,1,3,487,1,2.321
14,2,3,20,6,4,4,6,995,1,3.306
14,2,3,21,4,4,0,1,657,1,2.018
14,2,3,22,8,6,4,5,439,2,14.003
14,2,3,23,6,6,4,1,969,1,2.062
14,2,3,24,8,0,0,4,1071,1,-1
14,2,3,25,6,4,0,6,723,1,2.37
14,2,3,26,6,2,0,5,1025,1,1.522
14,2,3,27,2,2,2,1,342,1,1.596
14,2,3,28,4,0,0,3,170,1,-1
14,2,4,1,4,2,2,2,491,1,1.611
14,2,4,2,8,6,4,8,1005,1,1.601
14,2,4,3,8,4,0,2,1160,1,10.968
14,2,4,4,4,1,1,3,1044,1,1.71
14,2,4,5,4,2,0,3,434,1,2.218
14,2,4,6,4,0,0,4,1036,1,-1
14,2,4,7,2,0,0,2,891,1,-1
14,2,4,8,6,2,2,4,369,1,3.43
14,2,4,9,6,2,0,6,720,1,1.348
14,2,4,10,8,4,4,6,47,1,3.708
14,2,4,11,8,6,0,2,1033,2,6.696
14,2,4,12,8,2,2,6,1161,1,2.092
14,2,4,13,6,1,1,1,1084,1,1.673
14,2,4,14,6,4,4,1,832,2,6.103
14,2,4,15,8,2,0,7,1022,1,2.179
14,2,4,16,2,2,0,1,578,1,1.93
14,2,4,17,2,2,2,2,506,1,1.6
14,2,4,18,6,0,0,6,268,3,-1
14,2,4,19,6,6,0,3,890,2,6.645
14,2,4,20,2,1,1,1,331,1,1.961
14,2,4,21,8,8,0,8,661,1,1.286
14,2,4,22,8,1,1,2,728,1,6.06
14,2,4,23,4,4,0,3,265,2,8.27
14,2,4,24,6,4,0,2,352,1,4.726
14,2,4,25,6,6,4,5,604,1,2.749
14,2,4,26,8,0,0,8,266,1,-1
14,2,4,27,8,8,4,7,299,1,2.888
14,2,4,28,4,4,4,1,952,1,10.187
14,2,5,1,6,2,2,3,614,1,2.984
14,2,5,2,8,2,2,8,588,1,2.502
14,2,5,3,2,2,0,1,135,1,1.115
14,2,5,4,2,1,1,2,12,1,0.827
14,2,5,5,8,4,0,8,11,1,1.118
14,2,5,6,4,4,0,1,594,1,4.421
14,2,5,7,4,4,4,1,1062,1,1.471
14,2,5,8,8,8,0,3,236,2,6.365
14,2,5,9,6,6,4,3,483,2,9.797
14,2,5,10,8,6,0,6,406,2,15.135
14,2,5,11,4,0,0,2,742,1,-1
14,2,5,12,8,8,4,8,602,1,2.42
14,2,5,13,6,0,0,1,1159,1,-1
14,2,5,14,4,2,2,2,965,1,2.561
14,2,5,15,6,1,1,4,1049,1,2.348
14,2,5,16,6,4,0,1,847,2,4.564
14,2,5,17,8,1,1,7,609,1,1.692
14,2,5,18,2,0,0,1,864,1,-1
14,2,5,19,6,4,4,2,26,2,6.402
14,2,5,20,8,6,4,1,619,1,7.663
14,2,5,21,8,4,4,4,774,2,7.595
14,2,5,22,6,6,0,6,411,1,1.176
14,2,5,23,2,2,2,1,788,1,1.083
14,2,5,24,4,2,0,3,20,1,6.408
14,2,5,25,4,1,1,3,908,1,1.125
14,2,5,26,8,0,0,1,833,1,-1
14,2,5,27,6,2,0,1,172,1,4.246
14,2,5,28,8,2,0,5,1019,1,2.558
14,2,6,1,6,2,2,6,1029,1,2.403
14,2,6,2,8,4,4,8,614,1,2.236
14,2,6,3,8,0,0,2,657,1,-1
14,2,6,4,6,4,0,5,453,1,3.536
14,2,6,5,8,4,0,4,327,2,4.42
14,2,6,6,6,4,4,3,192,2,3.075
14,2,6,7,4,4,0,2,521,1,1.936
14,2,6,8,8,1,1,6,1012,1,1.133
14,2,6,9,8,6,0,7,967,1,2.58
14,2,6,10,2,2,2,2,344,1,0.926
14,2,6,11,8,8,4,1,118,2,10.615
14,2,6,12,8,2,2,5,106,1,2.591
14,2,6,13,4,2,0,2,292,1,0.951
14,2,6,14,4,4,4,2,319,1,1.195
14,2,6,15,6,6,0,5,763,1,1.397
14,2,6,16,2,1,1,1,353,1,1.195
14,2,6,17,8,6,4,4,516,2,4.826
14,2,6,18,4,1,1,4,579,1,1.437
14,2,6,19,6,2,0,2,1058,1,8.135
14,2,6,20,4,2,2,4,809,1,1.527
14,2,6,21,8,2,0,6,155,2,3.185
14,2,6,22,6,0,0,4,753,1,-1
14,2,6,23,8,8,0,5,1122,2,5.891
14,2,6,24,6,6,4,4,295,1,2.751
14,2,6,25,4,0,0,4,1123,2,-1
14,2,6,26,2,2,0,2,795,1,2.683
14,2,6,27,2,0,0,2,462,1,-1
14,2,6,28,6,1,1,2,800,1,1.845
14,2,7,1,8,2,0,2,140,1,3.105
14,2,7,2,8,8,4,3,412,2,9.604
14,2,7,3,8,2,2,4,34,1,9.693
14,2,7,4,2,2,2,1,11,1,1.508
14,2,7,5,4,2,0,1,40,1,1.68
14,2,7,6,8,4,4,2,284,1,6.451
14,2,7,7,8,1,1,4,942,1,1.493
14,2,7,8,4,4,0,4,644,1,1.149
14,2,7,9,6,2,2,2,723,2,7.24
14,2,7,10,6,6,0,3,860,1,3.181
14,2,7,11,4,1,1,2,1004,1,2.056
14,2,7,12,8,6,4,6,575,2,1.364
14,2,7,13,4,2,2,3,241,1,1.402
14,2,7,14,6,1,1,1,851,1,1.653
14,2,7,15,2,0,0,2,1107,1,-1
14,2,7,16,6,6,4,1,601,1,10.367
14,2,7,17,6,4,0,3,1145,2,6.064
14,2,7,18,6,2,0,4,735,2,1.33
14,2,7,19,2,2,0,1,446,1,1.031
14,2,7,20,2,1,1,2,951,1,0.897
14,2,7,21,4,0,0,3,682,1,-1
14,2,7,22,8,6,0,5,1165,2,8.46
14,2,7,23,8,0,0,6,834,2,-1
14,2,7,24,8,8,0,4,1084,2,5.483
14,2,7,25,4,4,4,4,396,1,1.394
14,2,7,26,8,4,0,6,410,2,5.527
14,2,7,27,6,4,4,4,318,2,5.027
14,2,7,28,6,0,0,2,1059,2,-1
14,2,8,1,6,2,0,5,719,1,2.118
14,2,8,2,8,1,1,5,199,1,2.953
14,2,8,3,6,4,4,1,1054,2,4.629
14,2,8,4,8,2,0,1,261,1,3.475
14,2,8,5,2,0,0,1,778,1,-1
14,2,8,6,8,6,0,1,513,1,5.737
14,2,8,7,2,1,1,1,419,1,1.107
14,2,8,8,6,6,4,5,151,1,2.314
14,2,8,9,6,4,0,4,718,1,1.718
14,2,8,10,4,4,0,3,46,1,1.267
14,2,8,11,2,2,2,2,1086,1,1.87
14,2,8,12,6,1,1,3,141,1,1.986
14,2,8,13,8,4,4,1,233,2,16.478
14,2,8,14,4,2,0,4,640,1,1.487
14,2,8,15,8,2,2,1,475,1,9.429
14,2,8,16,8,4,0,7,820,1,1.202
14,2,8,17,8,8,4,6,356,2,3.402
14,2,8,18,4,1,1,1,651,1,1.729
14,2,8,19,8,0,0,5,434,2,-1
14,2,8,20,8,8,0,1,659,2,6.093
14,2,8,21,6,6,0,2,752,1,3.413
14,2,8,22,4,0,0,1,889,2,-1
14,2,8,23,6,0,0,1,770,2,-1
14,2,8,24,6,2,2,6,744,1,2.811
14,2,8,25,8,6,4,3,286,2,5.122
14,2,8,26,4,2,2,1,161,1,1.115
14,2,8,27,4,4,4,3,252,1,2.785
14,2,8,28,2,2,0,2,1142,1,0.897
14,3,1,1,6,6,0,5,811,1,1.469
14,3,1,2,8,8,4,1,449,2,30.345
14,3,1,3,2,2,2,1,562,1,1.1
14,3,1,4,4,2,2,3,617,1,1.352
14,3,1,5,2,1,1,1,676,1,1.195
14,3,1,6,6,1,1,2,1001,1,3.65
14,3,1,7,8,6,0,3,514,2,14.882
14,3,1,8,4,0,0,3,1134,1,-1
14,3,1,9,8,2,0,7,1144,1,3.161
14,3,1,10,8,2,2,8,218,1,1.845
14,3,1,11,6,6,4,6,680,1,1.415
14,3,1,12,6,4,4,3,526,2,7.562
14,3,1,13,6,4,0,1,777,1,1.345
14,3,1,14,8,8,0,8,603,1,4.23
14,3,1,15,6,2,0,5,632,1,2.53
14,3,1,16,6,0,0,4,1006,2,-1
14,3,1,17,8,1,1,3,461,1,3.35
14,3,1,18,4,4,4,1,829,1,1.779
14,3,1,19,4,4,0,1,639,1,0.974
14,3,1,20,4,2,0,2,294,1,1.352
14,3,1,21,2,2,0,2,1107,1,1.145
14,3,1,22,2,0,0,2,1011,1,-1
14,3,1,23,6,2,2,6,923,1,1.648
14,3,1,24,8,0,0,6,107,2,-1
14,3,1,25,8,6,4,6,422,1,8.015
14,3,1,26,8,4,4,1,283,1,3.864
14,3,1,27,4,1,1,1,3,1,1.131
14,3,1,28,8,4,0,3,119,2,12.039
14,3,2,1,4,0,0,2,358,1,-1
14,3,2,2,8,6,4,8,998,1,2.316
14,3,2,3,4,4,4,2,474,1,1.61
14,3,2,4,8,8,4,8,786,1,2.918
14,3,2,5,4,4,0,2,675,1,3.176
14,3,2,6,8,4,4,5,767,1,8.098
14,3,2,7,8,2,2,2,149,2,11.049
14,3,2,8,8,1,1,5,1002,1,2.314
14,3,2,9,4,2,0,1,799,1,5.537
14,3,2,10,4,2,2,4,1014,1,1.413
14,3,2,11,2,2,0,1,179,1,1.25
14,3,2,12,8,0,0,3,865,3,-1
14,3,2,13,8,4,0,2,534,2,10.185
14,3,2,14,8,2,0,8,1146,1,1.765
14,3,2,15,2,0,0,1,35,1,-1
14,3,2,16,6,2,2,1,487,1,4.99
14,3,2,17,8,8,0,5,355,1,5.056
14,3,2,18,6,1,1,4,129,1,2.714
14,3,2,19,6,6,0,2,1193,1,9.824
14,3,2,20,8,6,0,5,117,1,7.618
14,3,2,21,6,4,0,6,472,1,1.449
14,3,2,22,6,2,0,3,814,1,8.599
14,3,2,23,6,0,0,6,622,1,-1
14,3,2,24,4,1,1,2,773,1,2.144
14,3,2,25,2,1,1,2,1184,1,0.931
14,3,2,26,6,4,4,6,633,1,2.243
14,3,2,27,6,6,4,5,311,1,1.919
14,3,2,28,2,2,2,2,226,1,1.142
14,3,3,1,8,6,4,7,309,1,1.679
14,3,3,2,6,4,4,4,619,1,1.771
14,3,3,3,8,0,0,1,305,1,-1
14,3,3,4,2,0,0,1,39,1,-1
14,3,3,5,6,6,4,4,1041,2,6.778
14,3,3,6,4,4,4,3,414,1,2.17
14,3,3,7,2,2,2,2,1154,1,1.384
14,3,3,8,2,2,0,1,931,1,1.043
14,3,3,9,8,8,4,6,235,1,5.499
14,3,3,10,6,6,0,1,907,2,6.896
14,3,3,11,4,2,0,3,948,1,1.241
14,3,3,12,6,4,0,5,82,1,1.684
14,3,3,13,2,1,1,2,339,1,1.155
14,3,3,14,4,4,0,3,176,1,0.905
14,3,3,15,4,1,1,4,1083,1,1.505
14,3,3,16,6,2,0,6,1175,1,1.253
14,3,3,17,8,8,0,4,110,1,26.558
14,3,3,18,8,2,2,5,241,2,8.304
14,3,3,19,8,1,1,6,68,1,3.094
14,3,3,20,8,2,0,6,275,1,7.426
14,3,3,21,8,6,0,2,1067,1,17.21
14,3,3,22,4,0,0,4,1185,1,-1
14,3,3,23,8,4,4,4,510,2,4.884
14,3,3,24,4,2,2,2,643,1,1.323
14,3,3,25,6,2,2,2,641,1,1.934
14,3,3,26,8,4,0,4,800,1,5.971
14,3,3,27,6,1,1,3,53,1,2.6
14,3,3,28,6,0,0,3,925,2,-1
14,3,4,1,4,0,0,1,1039,1,-1
14,3,4,2,6,4,0,2,486,1,4.672
14,3,4,3,2,2,0,2,373,1,1.025
14,3,4,4,8,1,1,1,823,1,1.585
14,3,4,5,8,8,4,2,665,1,9.242
14,3,4,6,4,1,1,3,541,1,1.65
14,3,4,7,6,6,0,4,916,2,7.236
14,3,4,8,8,6,4,2,349,1,6.236
14,3,4,9,8,4,0,8,542,1,1.502
14,3,4,10,2,0,0,2,183,1,-1
14,3,4,11,6,2,2,5,1058,1,1.925
14,3,4,12,6,0,0,5,40,1,-1
14,3,4,13,2,2,2,1,532,1,1.743
14,3,4,14,4,2,2,1,46,1,2.215
14,3,4,15,6,1,1,1,840,1,3.551
14,3,4,16,6,6,4,1,78,1,7.684
14,3,4,17,4,4,0,4,581,1,1.8
14,3,4,18,8,8,0,7,588,1,1.191
14,3,4,19,6,4,4,2,518,1,5.586
14,3,4,20,6,2,0,2,788,2,6.803
14,3,4,21,4,4,4,4,393,1,1.853
14,3,4,22,2,1,1,1,72,1,0.955
14,3,4,23,8,6,0,7,1003,1,1.122
14,3,4,24,8,0,0,2,620,2,-1
14,3,4,25,8,4,4,8,965,1,4.125
14,3,4,26,8,2,2,7,929,1,1.371
14,3,4,27,8,2,0,2,659,2,4.16
14,3,4,28,4,2,0,4,300,1,1.291
14,3,5,1,2,1,1,2,709,1,2.031
14,3,5,2,8,8,0,3,255,1,15.237
14,3,5,3,6,4,4,5,906,1,1.707
14,3,5,4,8,1,1,4,394,1,3.876
14,3,5,5,6,6,4,3,190,1,1.335
14,3,5,6,4,2,2,4,874,1,1.159
14,3,5,7,4,2,0,2,1068,1,1.18
14,3,5,8,8,6,4,3,120,2,13.757
14,3,5,9,6,2,2,3,677,1,1.764
14,3,5,10,6,4,0,4,105,1,1.055
14,3,5,11,6,0,0,1,551,1,-1
14,3,5,12,2,2,0,1,388,1,1.854
14,3,5,13,8,8,4,7,147,1,2.15
14,3,5,14,4,0,0,2,1128,1,-1
14,3,5,15,6,6,0,6,867,1,2.508
14,3,5,16,8,4,0,1,913,1,6.26
14,3,5,17,4,4,0,3,67,1,1.513
14,3,5,18,4,4,4,4,816,1,1.934
14,3,5,19,8,4,4,3,164,1,6.097
14,3,5,20,8,2,0,4,1166,1,4.949
14,3,5,21,4,1,1,1,336,1,1.576
14,3,5,22,8,0,0,8,756,1,-1
14,3,5,23,8,6,0,8,464,1,2.046
14,3,5,24,6,2,0,4,216,1,2.464
14,3,5,25,6,1,1,5,587,1,1.91
14,3,5,26,2,0,0,1,582,1,-1
14,3,5,27,2,2,2,2,889,1,2.246
14,3,5,28,8,2,2,1,891,1,8.883
14,3,6,1,6,0,0,2,13,2,-1
14,3,6,2,8,4,4,6,303,1,2.77
14,3,6,3,2,0,0,2,770,1,-1
14,3,6,4,4,2,0,3,596,1,2.84
14,3,6,5,2,1,1,1,340,1,1.043
14,3,6,6,2,2,0,2,845,1,1.129
14,3,6,7,6,4,0,3,666,1,8.308
14,3,6,8,4,1,1,2,158,1,1.56
14,3,6,9,8,8,0,2,108,2,7.766
14,3,6,10,4,4,0,1,28,1,2.313
14,3,6,11,4,0,0,4,759,2,-1
14,3,6,12,6,2,2,4,536,1,3.981
14,3,6,13,8,0,0,4,13,2,-1
14,3,6,14,8,8,4,5,214,2,11.962
14,3,6,15,8,4,0,7,566,1,1.059
14,3,6,16,8,6,0,1,846,1,3.182
14,3,6,17,2,2,2,1,569,1,1.521
14,3,6,18,4,4,4,2,365,1,2.146
14,3,6,19,4,2,2,2,391,1,2.157
14,3,6,20,8,6,4,4,1046,2,4.818
14,3,6,21,6,1,1,6,757,1,1.313
14,3,6,22,6,6,0,3,313,2,12.947
14,3,6,23,6,6,4,2,122,2,4.441
14,3,6,24,6,2,0,1,711,1,6.551
14,3,6,25,8,2,0,5,672,2,11.543
14,3,6,26,8,2,2,4,707,1,7.447
14,3,6,27,8,1,1,7,478,1,2.42
14,3,6,28,6,4,4,1,574,2,8.468
14,3,7,1,8,2,0,3,891,1,11.485
14,3,7,2,8,6,0,6,366,1,3.956
14,3,7,3,8,0,0,5,877,1,-1
14,3,7,4,4,1,1,4,1076,1,3.719
14,3,7,5,2,1,1,1,1179,1,1.458
14,3,7,6,6,1,1,1,935,1,2.201
14,3,7,7,2,0,0,1,422,1,-1
14,3,7,8,4,2,2,3,641,1,2.089
14,3,7,9,6,6,0,3,326,1,14.294
14,3,7,10,8,6,4,5,588,2,8.446
14,3,7,11,2,2,2,2,688,1,1.968
14,3,7,12,8,1,1,8,884,1,2.046
14,3,7,13,2,2,0,2,698,1,1.962
14,3,7,14,8,8,4,3,799,2,14.528
14,3,7,15,6,2,2,1,872,2,10.187
14,3,7,16,6,2,0,3,1157,1,5.803
14,3,7,17,4,4,4,3,1039,1,1.824
14,3,7,18,6,4,0,4,1054,2,1.083
14,3,7,19,8,4,0,6,748,1,1.413
14,3,7,20,8,4,4,2,34,1,11.029
14,3,7,21,8,8,0,6,22,1,14.702
14,3,7,22,4,2,0,4,179,1,1.014
14,3,7,23,4,0,0,3,1047,1,-1
14,3,7,24,8,2,2,3,781,2,6.095
14,3,7,25,6,0,0,6,60,1,-1
14,3,7,26,6,4,4,3,369,1,4.557
14,3,7,27,4,4,0,2,304,1,1.851
14,3,7,28,6,6,4,1,634,1,2.382
14,3,8,1,4,2,2,1,533,1,1.071
14,3,8,2,6,6,4,5,167,1,1.231
14,3,8,3,2,2,0,1,236,1,1.23
14,3,8,4,8,0,0,7,914,1,-1
14,3,8,5,4,0,0,1,902,1,-1
14,3,8,6,8,8,0,1,198,1,2.454
14,3,8,7,2,0,0,2,291,1,-1
14,3,8,8,8,2,2,6,1019,1,2.413
14,3,8,9,8,4,4,7,244,1,1.347
14,3,8,10,4,1,1,3,687,1,0.643
14,3,8,11,8,6,0,4,1177,2,2.771
14,3,8,12,4,2,0,1,785,1,1.433
14,3,8,13,8,1,1,2,724,1,2.049
14,3,8,14,8,4,0,5,177,1,1.627
14,3,8,15,6,6,0,2,343,2,8.191
14,3,8,16,6,2,2,5,380,1,0.787
14,3,8,17,8,6,4,1,836,1,3.304
14,3,8,18,6,0,0,2,351,1,-1
14,3,8,19,2,1,1,2,881,1,1.653
14,3,8,20,6,4,4,1,701,2,5.24
14,3,8,21,8,8,4,4,900,1,6.566
14,3,8,22,2,2,2,1,779,1,1.363
14,3,8,23,4,4,0,4,457,1,1.533
14,3,8,24,8,2,0,1,148,1,1.515
14,3,8,25,6,2,0,6,18,1,2.536
14,3,8,26,6,4,0,2,851,2,2.866
14,3,8,27,4,4,4,1,658,1,0.976
14,3,8,28,6,1,1,2,59,1,3.392
15,1,1,1,8,0,0,3,1026,3,-1
15,1,1,2,2,2,2,1,717,1,1.079
15,1,1,3,6,0,0,1,651,1,-1
15,1,1,4,4,0,0,3,153,1,-1
15,1,1,5,8,1,1,8,860,1,1.437
15,1,1,6,8,4,0,8,1197,1,1.47
15,1,1,7,8,8,4,3,649,1,3.453
15,1,1,8,6,4,0,3,1040,1,1.728
15,1,1,9,2,2,0,1,1074,1,1.03
15,1,1,10,6,2,0,2,557,1,1.296
15,1,1,11,8,4,4,3,259,1,14.939
15,1,1,12,6,2,2,2,104,1,1.258
15,1,1,13,8,6,0,5,796,1,13.166
15,1,1,14,2,0,0,1,261,1,-1
15,1,1,15,4,4,0,2,697,1,1.359
15,1,1,16,8,2,2,7,878,1,1.906
15,1,1,17,6,4,4,3,885,2,5.202
15,1,1,18,4,2,0,4,978,1,1.26
15,1,1,19,8,2,0,3,568,1,3.363
15,1,1,20,6,6,0,4,108,1,2.314
15,1,1,21,2,1,1,2,107,1,1.088
15,1,1,22,6,1,1,5,29,1,0.918
15,1,1,23,8,6,4,4,779,1,6.733
15,1,1,24,6,6,4,3,872,1,2.044
15,1,1,25,4,1,1,4,1057,1,1.081
15,1,1,26,4,2,2,4,452,1,1.024
15,1,1,27,4,4,4,2,429,1,0.882
15,1,1,28,8,8,0,5,924,1,9.419
15,1,2,1,8,2,0,6,246,1,2.155
15,1,2,2,4,0,0,2,121,1,-1
15,1,2,3,6,2,0,3,495,1,3.237
15,1,2,4,8,2,2,3,759,1,4.089
15,1,2,5,8,8,4,6,233,1,1.469
15,1,2,6,8,1,1,6,737,1,2.014
15,1,2,7,2,2,0,2,239,1,0.925
15,1,2,8,6,6,4,5,938,1,1.99
15,1,2,9,6,0,0,6,929,1,-1
15,1,2,10,6,4,0,1,414,1,1.117
15,1,2,11,6,4,4,1,1159,1,1.155
15,1,2,12,2,0,0,2,295,1,-1
15,1,2,13,6,1,1,4,229,1,1.665
15,1,2,14,4,2,2,1,601,1,0.999
15,1,2,15,8,6,4,2,590,1,6.332
15,1,2,16,2,2,2,2,1112,1,1.035
15,1,2,17,8,6,0,6,956,1,2.198
15,1,2,18,8,0,0,7,419,1,-1
15,1,2,19,2,1,1,1,210,1,0.99
15,1,2,20,8,8,0,3,903,1,4.392
15,1,2,21,6,6,0,1,330,1,14.576
15,1,2,22,8,4,4,8,332,1,1.589
15,1,2,23,8,4,0,3,1085,1,3.283
15,1,2,24,4,4,0,3,234,1,1.364
15,1,2,25,4,1,1,3,1181,1,0.968
15,1,2,26,4,2,0,1,474,1,1.275
15,1,2,27,6,2,2,6,447,1,1.267
15,1,2,28,4,4,4,1,755,1,1.053
15,1,3,1,4,2,2,2,1100,1,0.918
15,1,3,2,2,2,0,2,137,1,1.047
15,1,3,3,8,6,4,1,926,2,5.629
15,1,3,4,2,0,0,2,31,1,-1
15,1,3,5,8,6,0,8,790,1,2.736
15,1,3,6,8,2,0,5,1070,2,23.492
15,1,3,7,4,2,0,3,202,1,1.264
15,1,3,8,8,4,0,6,1198,1,1.779
15,1,3,9,6,6,4,4,605,1,1.876
15,1,3,10,6,1,1,6,1140,1,1.005
15,1,3,11,6,4,0,2,614,1,1.134
15,1,3,12,6,6,0,6,954,1,1.247
15,1,3,13,4,4,4,3,530,1,1.273
15,1,3,14,8,2,2,4,668,1,4.442
15,1,3,15,8,4,4,2,475,1,6.91
15,1,3,16,4,0,0,1,1026,1,-1
15,1,3,17,6,2,0,1,247,1,2.347
15,1,3,18,8,1,1,3,457,1,0.887
15,1,3,19,6,2,2,1,797,1,1.764
15,1,3,20,8,8,4,4,1017,2,11.219
15,1,3,21,8,8,0,1,752,2,3.621
15,1,3,22,2,1,1,2,46,1,0.993
15,1,3,23,2,2,2,2,883,1,0.833
15,1,3,24,6,0,0,3,1079,1,-1
15,1,3,25,4,1,1,2,631,1,1.279
15,1,3,26,8,0,0,2,61,2,-1
15,1,3,27,6,4,4,4,180,1,2.071
15,1,3,28,4,4,0,1,578,1,0.918
15,1,4,1,8,0,0,4,653,2,-1
15,1,4,2,4,4,4,4,884,1,2.761
15,1,4,3,6,4,4,6,528,1,1.812
15,1,4,4,4,4,0,4,1019,1,1.804
15,1,4,5,4,2,0,2,63,1,1.001
15,1,4,6,8,4,0,4,852,1,1.983
15,1,4,7,6,2,0,5,985,1,0.966
15,1,4,8,8,2,2,6,453,1,1.999
15,1,4,9,2,0,0,1,874,1,-1
15,1,4,10,8,8,4,5,127,2,8.296
15,1,4,11,6,1,1,3,1018,1,6.587
15,1,4,12,6,4,0,5,592,1,1.246
15,1,4,13,6,0,0,4,806,1,-1
15,1,4,14,2,2,2,1,262,1,0.874
15,1,4,15,2,1,1,1,1055,1,1.027
15,1,4,16,8,1,1,5,1133,1,7.999
15,1,4,17,4,2,2,3,214,1,1.494
15,1,4,18,2,2,0,1,979,1,0.957
15,1,4,19,8,6,0,3,1048,1,1.71
15,1,4,20,8,6,4,7,503,1,1.613
15,1,4,21,6,6,0,5,465,1,1.893
15,1,4,22,4,1,1,1,57,1,0.95
15,1,4,23,6,6,4,1,54,1,1.683
15,1,4,24,4,0,0,4,659,1,-1
15,1,4,25,8,2,0,4,188,1,10.28
15,1,4,26,8,8,0,4,621,2,20.339
15,1,4,27,6,2,2,5,126,1,2.072
15,1,4,28,8,4,4,1,335,1,2.459
15,1,5,1,8,6,0,7,946,1,2.332
15,1,5,2,8,1,1,2,471,1,1.377
15,1,5,3,6,0,0,2,830,1,-1
15,1,5,4,8,0,0,8,826,1,-1
15,1,5,5,8,4,0,2,1152,1,2.864
15,1,5,6,2,2,0,2,263,1,1.002
15,1,5,7,6,2,0,4,693,1,2.821
15,1,5,8,6,4,0,6,636,1,1.701
15,1,5,9,8,4,4,4,517,1,11.335
15,1,5,10,2,2,2,1,879,1,1.129
15,1,5,11,8,8,4,1,128,1,1.7
15,1,5,12,6,6,0,3,645,1,1.447
15,1,5,13,8,8,0,7,77,1,1.605
15,1,5,14,4,0,0,1,997,1,-1
15,1,5,15,6,2,2,3,50,1,1.612
15,1,5,16,4,2,2,3,760,1,1.141
15,1,5,17,8,2,0,2,8,1,2.876
15,1,5,18,2,1,1,1,14,1,0.985
15,1,5,19,4,4,0,4,314,1,2.077
15,1,5,20,4,1,1,4,778,1,1.18
15,1,5,21,8,6,4,6,975,1,7.55
15,1,5,22,2,0,0,2,600,1,-1
15,1,5,23,6,1,1,1,481,1,1.218
15,1,5,24,8,2,2,5,1096,1,17.025
15,1,5,25,6,6,4,2,551,1,2.598
15,1,5,26,4,4,4,1,1123,1,1.519
15,1,5,27,6,4,4,2,543,1,2.743
15,1,5,28,4,2,0,1,1108,1,0.989
15,1,6,1,2,2,2,2,359,1,1.164
15,1,6,2,6,2,0,6,124,1,1.119
15,1,6,3,8,2,2,8,850,2,9.129
15,1,6,4,8,4,0,7,971,1,1.714
15,1,6,5,6,0,0,5,722,1,-1
15,1,6,6,8,4,4,5,557,1,2.707
15,1,6,7,6,6,0,2,654,1,1.069
15,1,6,8,2,2,0,1,891,1,0.98
15,1,6,9,4,1,1,3,537,1,1.291
15,1,6,10,8,2,0,1,402,1,1.218
15,1,6,11,6,4,0,4,848,1,1.245
15,1,6,12,8,6,0,2,233,1,5.168
15,1,6,13,8,0,0,1,73,3,-1
15,1,6,14,8,1,1,1,329,1,0.962
15,1,6,15,8,8,0,8,718,2,8.573
15,1,6,16,2,1,1,2,383,1,1.081
15,1,6,17,8,6,4,3,606,1,6.932
15,1,6,18,2,0,0,1,712,1,-1
15,1,6,19,4,4,0,3,721,1,1.55
15,1,6,20,6,4,4,5,364,1,1.541
15,1,6,21,8,8,4,7,169,2,6.887
15,1,6,22,6,6,4,6,427,1,1.515
15,1,6,23,4,4,4,3,942,1,1.614
15,1,6,24,6,1,1,2,281,1,1.567
15,1,6,25,4,2,2,4,580,1,1.256
15,1,6,26,4,0,0,4,604,1,-1
15,1,6,27,4,2,0,2,969,1,1.428
15,1,6,28,6,2,2,4,1137,1,2.015
15,1,7,1,2,2,2,1,443,1,1.215
15,1,7,2,6,4,4,2,231,1,1.891
15,1,7,3,8,4,4,6,890,1,3.331
15,1,7,4,4,4,0,1,15,1,1.15
15,1,7,5,2,2,0,2,344,1,1.573
15,1,7,6,4,4,4,4,898,1,1.337
15,1,7,7,2,1,1,1,301,1,0.843
15,1,7,8,4,0,0,3,734,1,-1
15,1,7,9,8,0,0,5,467,1,-1
15,1,7,10,8,1,1,4,869,1,3.537
15,1,7,11,6,2,0,2,69,1,1.413
15,1,7,12,4,2,0,4,815,1,1.143
15,1,7,13,8,6,4,8,522,1,1.328
15,1,7,14,6,1,1,1,1118,1,1.413
15,1,7,15,6,6,0,6,979,1,2.118
15,1,7,16,8,2,0,8,1129,1,1.502
15,1,7,17,4,2,2,2,147,1,1.629
15,1,7,18,8,2,2,2,416,1,2.256
15,1,7,19,4,1,1,1,464,1,0.842
15,1,7,20,8,8,0,6,459,2,4.454
15,1,7,21,6,0,0,1,703,1,-1
15,1,7,22,6,6,4,6,462,1,1.734
15,1,7,23,6,4,0,3,1086,1,6.419
15,1,7,24,8,8,4,8,388,1,2.693
